Zeit Kanal A
(ms) (mV)

-50.01217000 3.56151000
-49.99169000 3.56151000
-49.97121000 2.66426600
-49.95073000 3.56151000
-49.93025000 3.56151000
-49.90977000 3.56151000
-49.88929000 3.56151000
-49.86881000 2.66426600
-49.84833000 3.56151000
-49.82785000 1.76397000
-49.80737000 3.56151000
-49.78689000 1.76397000
-49.76641000 2.66426600
-49.74593000 3.56151000
-49.72545000 3.56151000
-49.70497000 3.56151000
-49.68449000 2.66426600
-49.66401000 2.66426600
-49.64353000 2.66426600
-49.62305000 3.56151000
-49.60257000 2.66426600
-49.58208000 3.56151000
-49.56161000 3.56151000
-49.54113000 2.66426600
-49.52065000 3.56151000
-49.50017000 2.66426600
-49.47969000 2.66426600
-49.45921000 2.66426600
-49.43872000 3.56151000
-49.41825000 3.56151000
-49.39777000 3.56151000
-49.37729000 3.56151000
-49.35681000 2.66426600
-49.33633000 2.66426600
-49.31585000 1.76397000
-49.29536000 3.56151000
-49.27489000 2.66426600
-49.25441000 2.66426600
-49.23393000 3.56151000
-49.21345000 3.56151000
-49.19297000 3.56151000
-49.17249000 3.56151000
-49.15201000 3.56151000
-49.13153000 2.66426600
-49.11105000 2.66426600
-49.09057000 2.66426600
-49.07009000 3.56151000
-49.04961000 3.56151000
-49.02913000 3.56151000
-49.00865000 3.56151000
-48.98817000 3.56151000
-48.96769000 3.56151000
-48.94721000 2.66426600
-48.92673000 2.66426600
-48.90625000 3.56151000
-48.88577000 2.66426600
-48.86529000 3.56151000
-48.84481000 3.56151000
-48.82433000 3.56151000
-48.80385000 2.66426600
-48.78337000 2.66426600
-48.76289000 2.66426600
-48.74240000 3.56151000
-48.72193000 3.56151000
-48.70145000 3.56151000
-48.68097000 3.56151000
-48.66049000 2.66426600
-48.64001000 3.56151000
-48.61953000 2.66426600
-48.59904000 3.56151000
-48.57857000 3.56151000
-48.55809000 2.66426600
-48.53761000 3.56151000
-48.51713000 3.56151000
-48.49665000 3.56151000
-48.47617000 3.56151000
-48.45569000 2.66426600
-48.43521000 2.66426600
-48.41473000 3.56151000
-48.39425000 3.56151000
-48.37377000 2.66426600
-48.35329000 3.56151000
-48.33281000 3.56151000
-48.31233000 2.66426600
-48.29185000 1.76397000
-48.27137000 2.66426600
-48.25089000 2.66426600
-48.23041000 3.56151000
-48.20993000 3.56151000
-48.18945000 3.56151000
-48.16897000 3.56151000
-48.14849000 3.56151000
-48.12801000 2.66426600
-48.10753000 2.66426600
-48.08705000 3.56151000
-48.06657000 3.56151000
-48.04609000 3.56151000
-48.02561000 3.56151000
-48.00513000 3.56151000
-47.98465000 3.56151000
-47.96417000 2.66426600
-47.94369000 2.66426600
-47.92321000 2.66426600
-47.90273000 3.56151000
-47.88225000 3.56151000
-47.86177000 2.66426600
-47.84129000 3.56151000
-47.82081000 2.66426600
-47.80033000 3.56151000
-47.77985000 1.76397000
-47.75937000 2.66426600
-47.73889000 2.66426600
-47.71841000 3.56151000
-47.69793000 3.56151000
-47.67744000 3.56151000
-47.65697000 3.56151000
-47.63649000 2.66426600
-47.61601000 3.56151000
-47.59553000 2.66426600
-47.57505000 3.56151000
-47.55457000 3.56151000
-47.53408000 3.56151000
-47.51361000 3.56151000
-47.49313000 3.56151000
-47.47265000 3.56151000
-47.45217000 3.56151000
-47.43169000 3.56151000
-47.41121000 3.56151000
-47.39073000 3.56151000
-47.37025000 4.46180600
-47.34977000 3.56151000
-47.32929000 4.46180600
-47.30881000 3.56151000
-47.28833000 3.56151000
-47.26785000 2.66426600
-47.24737000 3.56151000
-47.22689000 2.66426600
-47.20641000 3.56151000
-47.18593000 3.56151000
-47.16545000 3.56151000
-47.14497000 3.56151000
-47.12449000 3.56151000
-47.10401000 3.56151000
-47.08353000 2.66426600
-47.06305000 3.56151000
-47.04257000 3.56151000
-47.02209000 3.56151000
-47.00161000 3.56151000
-46.98112000 3.56151000
-46.96065000 3.56151000
-46.94017000 3.56151000
-46.91969000 2.66426600
-46.89921000 2.66426600
-46.87873000 3.56151000
-46.85825000 3.56151000
-46.83776000 3.56151000
-46.81729000 3.56151000
-46.79681000 2.66426600
-46.77633000 3.56151000
-46.75585000 2.66426600
-46.73537000 3.56151000
-46.71489000 1.76397000
-46.69441000 2.66426600
-46.67393000 3.56151000
-46.65345000 3.56151000
-46.63297000 3.56151000
-46.61249000 3.56151000
-46.59201000 3.56151000
-46.57153000 2.66426600
-46.55105000 3.56151000
-46.53057000 3.56151000
-46.51009000 3.56151000
-46.48961000 3.56151000
-46.46913000 2.66426600
-46.44865000 3.56151000
-46.42817000 3.56151000
-46.40769000 3.56151000
-46.38721000 1.76397000
-46.36673000 3.56151000
-46.34625000 3.56151000
-46.32577000 3.56151000
-46.30529000 3.56151000
-46.28481000 2.66426600
-46.26433000 2.66426600
-46.24385000 2.66426600
-46.22337000 2.66426600
-46.20289000 2.66426600
-46.18241000 2.66426600
-46.16193000 3.56151000
-46.14145000 2.66426600
-46.12097000 3.56151000
-46.10049000 2.66426600
-46.08001000 2.66426600
-46.05953000 2.66426600
-46.03905000 2.66426600
-46.01857000 3.56151000
-45.99809000 2.66426600
-45.97761000 3.56151000
-45.95713000 2.66426600
-45.93665000 2.66426600
-45.91616000 2.66426600
-45.89569000 2.66426600
-45.87521000 2.66426600
-45.85473000 3.56151000
-45.83425000 3.56151000
-45.81377000 2.66426600
-45.79329000 3.56151000
-45.77280000 3.56151000
-45.75233000 2.66426600
-45.73185000 2.66426600
-45.71137000 3.56151000
-45.69089000 2.66426600
-45.67041000 2.66426600
-45.64993000 3.56151000
-45.62945000 3.56151000
-45.60897000 3.56151000
-45.58849000 3.56151000
-45.56801000 3.56151000
-45.54753000 2.66426600
-45.52705000 3.56151000
-45.50657000 3.56151000
-45.48609000 2.66426600
-45.46561000 3.56151000
-45.44513000 2.66426600
-45.42465000 3.56151000
-45.40417000 2.66426600
-45.38369000 3.56151000
-45.36320000 2.66426600
-45.34273000 3.56151000
-45.32225000 3.56151000
-45.30177000 3.56151000
-45.28129000 3.56151000
-45.26081000 3.56151000
-45.24033000 3.56151000
-45.21984000 2.66426600
-45.19937000 3.56151000
-45.17889000 3.56151000
-45.15841000 3.56151000
-45.13793000 3.56151000
-45.11745000 3.56151000
-45.09697000 3.56151000
-45.07648000 3.56151000
-45.05601000 3.56151000
-45.03553000 2.66426600
-45.01505000 3.56151000
-44.99457000 3.56151000
-44.97409000 3.56151000
-44.95361000 3.56151000
-44.93313000 3.56151000
-44.91265000 3.56151000
-44.89217000 2.66426600
-44.87169000 2.66426600
-44.85121000 2.66426600
-44.83073000 3.56151000
-44.81025000 3.56151000
-44.78977000 3.56151000
-44.76929000 3.56151000
-44.74881000 2.66426600
-44.72833000 2.66426600
-44.70785000 2.66426600
-44.68737000 2.66426600
-44.66689000 3.56151000
-44.64641000 2.66426600
-44.62593000 3.56151000
-44.60545000 3.56151000
-44.58497000 3.56151000
-44.56449000 3.56151000
-44.54401000 2.66426600
-44.52353000 2.66426600
-44.50305000 2.66426600
-44.48257000 3.56151000
-44.46209000 2.66426600
-44.44161000 3.56151000
-44.42113000 2.66426600
-44.40065000 2.66426600
-44.38017000 1.76397000
-44.35969000 3.56151000
-44.33921000 2.66426600
-44.31873000 3.56151000
-44.29825000 4.46180600
-44.27777000 3.56151000
-44.25729000 7.15659000
-44.23681000 7.15659000
-44.21633000 6.25629500
-44.19585000 5.35905000
-44.17537000 6.25629500
-44.15488000 5.35905000
-44.13441000 5.35905000
-44.11393000 6.25629500
-44.09345000 5.35905000
-44.07297000 5.35905000
-44.05249000 4.46180600
-44.03201000 3.56151000
-44.01152000 3.56151000
-43.99105000 3.56151000
-43.97057000 4.46180600
-43.95009000 3.56151000
-43.92961000 4.46180600
-43.90913000 3.56151000
-43.88865000 3.56151000
-43.86817000 2.66426600
-43.84769000 3.56151000
-43.82721000 2.66426600
-43.80673000 3.56151000
-43.78625000 3.56151000
-43.76577000 3.56151000
-43.74529000 3.56151000
-43.72481000 3.56151000
-43.70433000 3.56151000
-43.68385000 2.66426600
-43.66337000 2.66426600
-43.64289000 3.56151000
-43.62241000 3.56151000
-43.60192000 3.56151000
-43.58145000 3.56151000
-43.56097000 3.56151000
-43.54049000 3.56151000
-43.52001000 2.66426600
-43.49953000 2.66426600
-43.47905000 3.56151000
-43.45856000 3.56151000
-43.43809000 2.66426600
-43.41761000 3.56151000
-43.39713000 2.66426600
-43.37665000 3.56151000
-43.35617000 2.66426600
-43.33569000 2.66426600
-43.31520000 2.66426600
-43.29473000 2.66426600
-43.27425000 3.56151000
-43.25377000 3.56151000
-43.23329000 3.56151000
-43.21281000 2.66426600
-43.19233000 2.66426600
-43.17185000 2.66426600
-43.15137000 3.56151000
-43.13089000 3.56151000
-43.11041000 2.66426600
-43.08993000 3.56151000
-43.06945000 2.66426600
-43.04897000 2.66426600
-43.02849000 0.86672560
-43.00801000 2.66426600
-42.98753000 1.76397000
-42.96705000 2.66426600
-42.94657000 3.56151000
-42.92609000 2.66426600
-42.90561000 3.56151000
-42.88513000 2.66426600
-42.86465000 2.66426600
-42.84417000 2.66426600
-42.82369000 2.66426600
-42.80321000 2.66426600
-42.78273000 3.56151000
-42.76225000 3.56151000
-42.74177000 2.66426600
-42.72129000 3.56151000
-42.70081000 2.66426600
-42.68033000 2.66426600
-42.65985000 1.76397000
-42.63937000 2.66426600
-42.61889000 3.56151000
-42.59841000 2.66426600
-42.57793000 3.56151000
-42.55745000 2.66426600
-42.53697000 2.66426600
-42.51649000 2.66426600
-42.49601000 2.66426600
-42.47553000 1.76397000
-42.45505000 2.66426600
-42.43457000 3.56151000
-42.41409000 2.66426600
-42.39360000 3.56151000
-42.37313000 2.66426600
-42.35265000 2.66426600
-42.33217000 1.76397000
-42.31169000 2.66426600
-42.29121000 2.66426600
-42.27073000 2.66426600
-42.25024000 3.56151000
-42.22977000 3.56151000
-42.20929000 3.56151000
-42.18881000 3.56151000
-42.16833000 3.56151000
-42.14785000 2.66426600
-42.12737000 3.56151000
-42.10689000 3.56151000
-42.08641000 2.66426600
-42.06593000 3.56151000
-42.04545000 2.66426600
-42.02497000 3.56151000
-42.00449000 1.76397000
-41.98400000 3.56151000
-41.96353000 2.66426600
-41.94305000 3.56151000
-41.92257000 3.56151000
-41.90209000 3.56151000
-41.88161000 3.56151000
-41.86113000 3.56151000
-41.84064000 3.56151000
-41.82017000 2.66426600
-41.79969000 3.56151000
-41.77921000 3.56151000
-41.75873000 3.56151000
-41.73825000 4.46180600
-41.71777000 3.56151000
-41.69728000 4.46180600
-41.67681000 3.56151000
-41.65633000 3.56151000
-41.63585000 3.56151000
-41.61537000 3.56151000
-41.59489000 4.46180600
-41.57441000 3.56151000
-41.55393000 4.46180600
-41.53345000 3.56151000
-41.51297000 3.56151000
-41.49249000 2.66426600
-41.47201000 3.56151000
-41.45153000 3.56151000
-41.43105000 3.56151000
-41.41057000 4.46180600
-41.39009000 4.46180600
-41.36961000 4.46180600
-41.34913000 3.56151000
-41.32865000 3.56151000
-41.30817000 3.56151000
-41.28769000 3.56151000
-41.26721000 3.56151000
-41.24673000 3.56151000
-41.22625000 3.56151000
-41.20577000 3.56151000
-41.18529000 3.56151000
-41.16481000 3.56151000
-41.14433000 3.56151000
-41.12385000 3.56151000
-41.10337000 3.56151000
-41.08289000 3.56151000
-41.06241000 3.56151000
-41.04193000 3.56151000
-41.02145000 3.56151000
-41.00097000 3.56151000
-40.98049000 1.76397000
-40.96001000 3.56151000
-40.93953000 3.56151000
-40.91905000 3.56151000
-40.89857000 4.46180600
-40.87809000 3.56151000
-40.85761000 3.56151000
-40.83713000 3.56151000
-40.81665000 3.56151000
-40.79617000 2.66426600
-40.77569000 3.56151000
-40.75521000 3.56151000
-40.73473000 3.56151000
-40.71425000 4.46180600
-40.69377000 3.56151000
-40.67329000 3.56151000
-40.65281000 3.56151000
-40.63233000 3.56151000
-40.61185000 2.66426600
-40.59137000 3.56151000
-40.57089000 3.56151000
-40.55041000 2.66426600
-40.52993000 3.56151000
-40.50945000 2.66426600
-40.48896000 3.56151000
-40.46849000 2.66426600
-40.44801000 3.56151000
-40.42753000 2.66426600
-40.40705000 2.66426600
-40.38657000 3.56151000
-40.36609000 3.56151000
-40.34561000 3.56151000
-40.32513000 3.56151000
-40.30465000 2.66426600
-40.28417000 2.66426600
-40.26369000 3.56151000
-40.24321000 3.56151000
-40.22272000 3.56151000
-40.20225000 3.56151000
-40.18177000 3.56151000
-40.16129000 3.56151000
-40.14081000 1.76397000
-40.12033000 2.66426600
-40.09985000 2.66426600
-40.07936000 2.66426600
-40.05889000 3.56151000
-40.03841000 3.56151000
-40.01793000 3.56151000
-39.99745000 3.56151000
-39.97697000 3.56151000
-39.95649000 2.66426600
-39.93600000 3.56151000
-39.91553000 2.66426600
-39.89505000 3.56151000
-39.87457000 3.56151000
-39.85409000 3.56151000
-39.83361000 3.56151000
-39.81313000 3.56151000
-39.79265000 3.56151000
-39.77217000 2.66426600
-39.75169000 3.56151000
-39.73121000 3.56151000
-39.71073000 3.56151000
-39.69025000 3.56151000
-39.66977000 2.66426600
-39.64929000 2.66426600
-39.62881000 1.76397000
-39.60833000 2.66426600
-39.58785000 2.66426600
-39.56737000 2.66426600
-39.54689000 3.56151000
-39.52641000 2.66426600
-39.50593000 3.56151000
-39.48545000 2.66426600
-39.46497000 2.66426600
-39.44449000 1.76397000
-39.42401000 2.66426600
-39.40353000 2.66426600
-39.38305000 2.66426600
-39.36257000 3.56151000
-39.34209000 3.56151000
-39.32161000 7.15659000
-39.30113000 6.25629500
-39.28065000 6.25629500
-39.26017000 5.35905000
-39.23969000 5.35905000
-39.21921000 6.25629500
-39.19873000 5.35905000
-39.17825000 6.25629500
-39.15777000 5.35905000
-39.13729000 4.46180600
-39.11681000 3.56151000
-39.09633000 3.56151000
-39.07585000 3.56151000
-39.05537000 3.56151000
-39.03489000 3.56151000
-39.01441000 3.56151000
-38.99393000 3.56151000
-38.97345000 3.56151000
-38.95297000 3.56151000
-38.93249000 2.66426600
-38.91201000 3.56151000
-38.89153000 3.56151000
-38.87105000 3.56151000
-38.85057000 3.56151000
-38.83009000 2.66426600
-38.80961000 3.56151000
-38.78913000 3.56151000
-38.76865000 2.66426600
-38.74817000 1.76397000
-38.72768000 2.66426600
-38.70721000 3.56151000
-38.68673000 2.66426600
-38.66625000 3.56151000
-38.64577000 2.66426600
-38.62529000 2.66426600
-38.60481000 1.76397000
-38.58433000 2.66426600
-38.56385000 1.76397000
-38.54337000 3.56151000
-38.52289000 3.56151000
-38.50241000 2.66426600
-38.48193000 3.56151000
-38.46145000 3.56151000
-38.44097000 2.66426600
-38.42049000 1.76397000
-38.40001000 2.66426600
-38.37953000 3.56151000
-38.35905000 2.66426600
-38.33857000 3.56151000
-38.31808000 2.66426600
-38.29761000 2.66426600
-38.27713000 2.66426600
-38.25665000 2.66426600
-38.23617000 1.76397000
-38.21569000 2.66426600
-38.19521000 2.66426600
-38.17472000 2.66426600
-38.15425000 3.56151000
-38.13377000 2.66426600
-38.11329000 2.66426600
-38.09281000 1.76397000
-38.07233000 2.66426600
-38.05185000 1.76397000
-38.03137000 2.66426600
-38.01089000 3.56151000
-37.99041000 2.66426600
-37.96993000 2.66426600
-37.94945000 2.66426600
-37.92897000 2.66426600
-37.90849000 1.76397000
-37.88801000 2.66426600
-37.86753000 3.56151000
-37.84705000 2.66426600
-37.82657000 3.56151000
-37.80609000 3.56151000
-37.78561000 3.56151000
-37.76513000 3.56151000
-37.74465000 2.66426600
-37.72417000 2.66426600
-37.70369000 3.56151000
-37.68321000 3.56151000
-37.66273000 3.56151000
-37.64225000 3.56151000
-37.62177000 2.66426600
-37.60129000 3.56151000
-37.58081000 1.76397000
-37.56033000 2.66426600
-37.53985000 2.66426600
-37.51937000 3.56151000
-37.49889000 3.56151000
-37.47840000 2.66426600
-37.45793000 3.56151000
-37.43745000 2.66426600
-37.41697000 2.66426600
-37.39649000 2.66426600
-37.37601000 2.66426600
-37.35553000 3.56151000
-37.33505000 3.56151000
-37.31457000 3.56151000
-37.29409000 2.66426600
-37.27361000 2.66426600
-37.25313000 1.76397000
-37.23265000 2.66426600
-37.21217000 2.66426600
-37.19169000 3.56151000
-37.17121000 3.56151000
-37.15073000 3.56151000
-37.13025000 3.56151000
-37.10977000 3.56151000
-37.08929000 2.66426600
-37.06881000 2.66426600
-37.04833000 2.66426600
-37.02785000 2.66426600
-37.00737000 2.66426600
-36.98689000 3.56151000
-36.96640000 2.66426600
-36.94593000 3.56151000
-36.92545000 3.56151000
-36.90497000 2.66426600
-36.88449000 2.66426600
-36.86401000 39.52147000
-36.84353000 38.62117000
-36.82305000 35.02609000
-36.80257000 33.22855000
-36.78209000 30.53072000
-36.76161000 28.73318000
-36.74113000 25.13810000
-36.72065000 24.23780000
-36.70017000 21.53996000
-36.67969000 20.64272000
-36.65921000 20.64272000
-36.63873000 17.94488000
-36.61825000 17.94488000
-36.59777000 16.14734000
-36.57729000 15.24705000
-36.55680000 13.44951000
-36.53633000 12.54921000
-36.51585000 11.65197000
-36.49537000 10.75167000
-36.47489000 10.75167000
-36.45441000 9.85137500
-36.43393000 9.85137500
-36.41344000 8.95413000
-36.39297000 7.15659000
-36.37249000 7.15659000
-36.35201000 7.15659000
-36.33153000 7.15659000
-36.31105000 6.25629500
-36.29057000 7.15659000
-36.27009000 6.25629500
-36.24961000 6.25629500
-36.22913000 5.35905000
-36.20865000 5.35905000
-36.18817000 4.46180600
-36.16769000 5.35905000
-36.14721000 5.35905000
-36.12673000 4.46180600
-36.10625000 5.35905000
-36.08577000 3.56151000
-36.06529000 3.56151000
-36.04481000 3.56151000
-36.02433000 3.56151000
-36.00385000 3.56151000
-35.98337000 3.56151000
-35.96289000 4.46180600
-35.94241000 3.56151000
-35.92193000 3.56151000
-35.90145000 3.56151000
-35.88097000 3.56151000
-35.86049000 2.66426600
-35.84001000 3.56151000
-35.81953000 3.56151000
-35.79905000 3.56151000
-35.77857000 3.56151000
-35.75809000 2.66426600
-35.73761000 3.56151000
-35.71712000 2.66426600
-35.69665000 2.66426600
-35.67617000 2.66426600
-35.65569000 2.66426600
-35.63521000 3.56151000
-35.61473000 2.66426600
-35.59425000 3.56151000
-35.57377000 3.56151000
-35.55329000 2.66426600
-35.53281000 2.66426600
-35.51233000 2.66426600
-35.49185000 3.56151000
-35.47137000 3.56151000
-35.45089000 3.56151000
-35.43041000 2.66426600
-35.40993000 3.56151000
-35.38945000 2.66426600
-35.36897000 2.66426600
-35.34849000 1.76397000
-35.32801000 2.66426600
-35.30753000 3.56151000
-35.28705000 3.56151000
-35.26657000 3.56151000
-35.24609000 2.66426600
-35.22561000 2.66426600
-35.20512000 1.76397000
-35.18465000 2.66426600
-35.16417000 1.76397000
-35.14369000 2.66426600
-35.12321000 3.56151000
-35.10273000 2.66426600
-35.08225000 3.56151000
-35.06177000 2.66426600
-35.04129000 2.66426600
-35.02081000 2.66426600
-35.00033000 2.66426600
-34.97985000 3.56151000
-34.95937000 2.66426600
-34.93889000 3.56151000
-34.91841000 2.66426600
-34.89793000 2.66426600
-34.87745000 2.66426600
-34.85697000 2.66426600
-34.83649000 2.66426600
-34.81601000 3.56151000
-34.79552000 3.56151000
-34.77505000 3.56151000
-34.75457000 3.56151000
-34.73409000 2.66426600
-34.71361000 2.66426600
-34.69313000 1.76397000
-34.67265000 2.66426600
-34.65216000 2.66426600
-34.63169000 2.66426600
-34.61121000 3.56151000
-34.59073000 2.66426600
-34.57025000 3.56151000
-34.54977000 2.66426600
-34.52929000 2.66426600
-34.50881000 2.66426600
-34.48833000 2.66426600
-34.46785000 3.56151000
-34.44737000 2.66426600
-34.42689000 50.30976000
-34.40641000 47.61193000
-34.38593000 44.91714000
-34.36545000 43.11655000
-34.34497000 37.72393000
-34.32449000 34.12885000
-34.30401000 32.32826000
-34.28353000 30.53072000
-34.26305000 27.83288000
-34.24257000 26.93563000
-34.22209000 24.23780000
-34.20161000 22.44026000
-34.18113000 19.74242000
-34.16065000 19.74242000
-34.14017000 17.94488000
-34.11969000 17.04459000
-34.09921000 16.14734000
-34.07873000 14.34675000
-34.05825000 14.34675000
-34.03777000 13.44951000
-34.01729000 11.65197000
-33.99681000 10.75167000
-33.97633000 10.75167000
-33.95584000 10.75167000
-33.93537000 9.85137500
-33.91489000 9.85137500
-33.89441000 8.95413000
-33.87393000 8.05383400
-33.85345000 7.15659000
-33.83297000 7.15659000
-33.81249000 7.15659000
-33.79201000 7.15659000
-33.77153000 7.15659000
-33.75105000 7.15659000
-33.73057000 7.15659000
-33.71009000 5.35905000
-33.68961000 6.25629500
-33.66913000 5.35905000
-33.64865000 5.35905000
-33.62817000 5.35905000
-33.60769000 5.35905000
-33.58721000 5.35905000
-33.56673000 5.35905000
-33.54625000 4.46180600
-33.52577000 4.46180600
-33.50529000 4.46180600
-33.48481000 3.56151000
-33.46433000 4.46180600
-33.44385000 4.46180600
-33.42337000 3.56151000
-33.40289000 4.46180600
-33.38241000 3.56151000
-33.36193000 3.56151000
-33.34145000 3.56151000
-33.32097000 3.56151000
-33.30049000 2.66426600
-33.28001000 3.56151000
-33.25953000 3.56151000
-33.23905000 3.56151000
-33.21857000 3.56151000
-33.19809000 3.56151000
-33.17761000 3.56151000
-33.15713000 2.66426600
-33.13665000 2.66426600
-33.11617000 3.56151000
-33.09569000 3.56151000
-33.07521000 3.56151000
-33.05473000 3.56151000
-33.03424000 3.56151000
-33.01377000 3.56151000
-32.99329000 3.56151000
-32.97281000 1.76397000
-32.95233000 3.56151000
-32.93185000 3.56151000
-32.91137000 3.56151000
-32.89088000 3.56151000
-32.87041000 2.66426600
-32.84993000 3.56151000
-32.82945000 2.66426600
-32.80897000 2.66426600
-32.78849000 2.66426600
-32.76801000 2.66426600
-32.74753000 3.56151000
-32.72705000 3.56151000
-32.70657000 3.56151000
-32.68609000 2.66426600
-32.66561000 2.66426600
-32.64513000 2.66426600
-32.62465000 2.66426600
-32.60417000 3.56151000
-32.58369000 2.66426600
-32.56321000 3.56151000
-32.54273000 3.56151000
-32.52225000 2.66426600
-32.50177000 2.66426600
-32.48129000 3.56151000
-32.46081000 2.66426600
-32.44033000 3.56151000
-32.41985000 3.56151000
-32.39937000 2.66426600
-32.37889000 3.56151000
-32.35841000 3.56151000
-32.33792000 2.66426600
-32.31745000 1.76397000
-32.29697000 2.66426600
-32.27649000 1.76397000
-32.25601000 2.66426600
-32.23553000 3.56151000
-32.21505000 2.66426600
-32.19456000 3.56151000
-32.17409000 2.66426600
-32.15361000 2.66426600
-32.13313000 1.76397000
-32.11265000 2.66426600
-32.09217000 3.56151000
-32.07169000 2.66426600
-32.05121000 3.56151000
-32.03073000 3.56151000
-32.01025000 3.56151000
-31.98977000 3.56151000
-31.96929000 2.66426600
-31.94881000 2.66426600
-31.92833000 2.66426600
-31.90785000 3.56151000
-31.88737000 3.56151000
-31.86689000 3.56151000
-31.84641000 2.66426600
-31.82593000 3.56151000
-31.80545000 1.76397000
-31.78497000 2.66426600
-31.76449000 2.66426600
-31.74401000 3.56151000
-31.72353000 3.56151000
-31.70305000 2.66426600
-31.68257000 3.56151000
-31.66209000 2.66426600
-31.64161000 2.66426600
-31.62113000 1.76397000
-31.60065000 2.66426600
-31.58017000 3.56151000
-31.55969000 2.66426600
-31.53921000 3.56151000
-31.51873000 2.66426600
-31.49825000 2.66426600
-31.47777000 3.56151000
-31.45729000 2.66426600
-31.43681000 2.66426600
-31.41633000 2.66426600
-31.39585000 3.56151000
-31.37537000 2.66426600
-31.35489000 3.56151000
-31.33441000 2.66426600
-31.31393000 3.56151000
-31.29345000 1.76397000
-31.27297000 3.56151000
-31.25249000 2.66426600
-31.23201000 2.66426600
-31.21153000 3.56151000
-31.19105000 2.66426600
-31.17057000 3.56151000
-31.15009000 2.66426600
-31.12961000 2.66426600
-31.10913000 2.66426600
-31.08865000 3.56151000
-31.06817000 3.56151000
-31.04769000 2.66426600
-31.02721000 3.56151000
-31.00673000 2.66426600
-30.98625000 3.56151000
-30.96577000 2.66426600
-30.94529000 2.66426600
-30.92481000 2.66426600
-30.90433000 3.56151000
-30.88385000 3.56151000
-30.86337000 2.66426600
-30.84289000 3.56151000
-30.82241000 3.56151000
-30.80193000 2.66426600
-30.78145000 1.76397000
-30.76097000 2.66426600
-30.74049000 2.66426600
-30.72001000 2.66426600
-30.69953000 3.56151000
-30.67905000 2.66426600
-30.65857000 3.56151000
-30.63809000 2.66426600
-30.61761000 2.66426600
-30.59713000 1.76397000
-30.57665000 2.66426600
-30.55617000 3.56151000
-30.53569000 3.56151000
-30.51521000 3.56151000
-30.49473000 2.66426600
-30.47425000 3.56151000
-30.45377000 2.66426600
-30.43329000 2.66426600
-30.41281000 2.66426600
-30.39233000 2.66426600
-30.37185000 3.56151000
-30.35137000 2.66426600
-30.33089000 3.56151000
-30.31041000 2.66426600
-30.28993000 2.66426600
-30.26945000 2.66426600
-30.24897000 2.66426600
-30.22849000 2.66426600
-30.20801000 2.66426600
-30.18753000 3.56151000
-30.16705000 2.66426600
-30.14657000 2.66426600
-30.12609000 2.66426600
-30.10561000 2.66426600
-30.08513000 2.66426600
-30.06465000 3.56151000
-30.04417000 3.56151000
-30.02369000 2.66426600
-30.00321000 3.56151000
-29.98273000 2.66426600
-29.96225000 2.66426600
-29.94177000 1.76397000
-29.92129000 2.66426600
-29.90081000 2.66426600
-29.88033000 2.66426600
-29.85985000 3.56151000
-29.83937000 3.56151000
-29.81889000 3.56151000
-29.79841000 3.56151000
-29.77793000 3.56151000
-29.75745000 2.66426600
-29.73697000 3.56151000
-29.71649000 3.56151000
-29.69601000 2.66426600
-29.67553000 3.56151000
-29.65505000 3.56151000
-29.63457000 3.56151000
-29.61409000 3.56151000
-29.59361000 2.66426600
-29.57313000 2.66426600
-29.55265000 3.56151000
-29.53217000 3.56151000
-29.51169000 3.56151000
-29.49121000 3.56151000
-29.47073000 3.56151000
-29.45025000 3.56151000
-29.42977000 1.76397000
-29.40929000 2.66426600
-29.38881000 2.66426600
-29.36833000 3.56151000
-29.34785000 3.56151000
-29.32737000 3.56151000
-29.30689000 3.56151000
-29.28641000 3.56151000
-29.26593000 3.56151000
-29.24545000 2.66426600
-29.22497000 3.56151000
-29.20449000 3.56151000
-29.18401000 3.56151000
-29.16353000 3.56151000
-29.14305000 3.56151000
-29.12257000 3.56151000
-29.10209000 3.56151000
-29.08161000 2.66426600
-29.06113000 2.66426600
-29.04065000 3.56151000
-29.02017000 3.56151000
-28.99969000 3.56151000
-28.97921000 3.56151000
-28.95873000 3.56151000
-28.93825000 3.56151000
-28.91777000 1.76397000
-28.89729000 3.56151000
-28.87681000 2.66426600
-28.85633000 3.56151000
-28.83585000 3.56151000
-28.81537000 3.56151000
-28.79489000 3.56151000
-28.77441000 3.56151000
-28.75393000 2.66426600
-28.73345000 2.66426600
-28.71297000 3.56151000
-28.69249000 3.56151000
-28.67201000 3.56151000
-28.65153000 3.56151000
-28.63105000 3.56151000
-28.61057000 3.56151000
-28.59009000 2.66426600
-28.56961000 2.66426600
-28.54913000 2.66426600
-28.52865000 3.56151000
-28.50817000 3.56151000
-28.48769000 2.66426600
-28.46721000 3.56151000
-28.44673000 2.66426600
-28.42625000 2.66426600
-28.40577000 1.76397000
-28.38529000 3.56151000
-28.36481000 2.66426600
-28.34433000 3.56151000
-28.32385000 3.56151000
-28.30337000 2.66426600
-28.28289000 3.56151000
-28.26241000 2.66426600
-28.24193000 2.66426600
-28.22145000 1.76397000
-28.20097000 2.66426600
-28.18049000 3.56151000
-28.16001000 3.56151000
-28.13953000 3.56151000
-28.11905000 3.56151000
-28.09857000 3.56151000
-28.07809000 2.66426600
-28.05761000 2.66426600
-28.03713000 2.66426600
-28.01665000 3.56151000
-27.99617000 3.56151000
-27.97569000 3.56151000
-27.95521000 3.56151000
-27.93473000 2.66426600
-27.91425000 2.66426600
-27.89377000 2.66426600
-27.87329000 3.56151000
-27.85281000 2.66426600
-27.83233000 2.66426600
-27.81185000 3.56151000
-27.79137000 3.56151000
-27.77089000 3.56151000
-27.75041000 2.66426600
-27.72993000 2.66426600
-27.70945000 2.66426600
-27.68897000 2.66426600
-27.66849000 3.56151000
-27.64801000 3.56151000
-27.62753000 3.56151000
-27.60705000 2.66426600
-27.58657000 3.56151000
-27.56609000 2.66426600
-27.54561000 2.66426600
-27.52513000 1.76397000
-27.50465000 3.56151000
-27.48417000 3.56151000
-27.46369000 3.56151000
-27.44321000 3.56151000
-27.42273000 3.56151000
-27.40225000 2.66426600
-27.38177000 1.76397000
-27.36129000 2.66426600
-27.34081000 2.66426600
-27.32033000 3.56151000
-27.29985000 3.56151000
-27.27937000 2.66426600
-27.25889000 2.66426600
-27.23841000 3.56151000
-27.21793000 2.66426600
-27.19745000 2.66426600
-27.17697000 2.66426600
-27.15649000 3.56151000
-27.13601000 2.66426600
-27.11553000 3.56151000
-27.09505000 3.56151000
-27.07457000 3.56151000
-27.05409000 2.66426600
-27.03361000 2.66426600
-27.01313000 10.75167000
-26.99265000 10.75167000
-26.97217000 10.75167000
-26.95169000 9.85137500
-26.93121000 9.85137500
-26.91073000 8.95413000
-26.89025000 8.05383400
-26.86977000 7.15659000
-26.84929000 7.15659000
-26.82881000 6.25629500
-26.80833000 7.15659000
-26.78785000 7.15659000
-26.76737000 6.25629500
-26.74689000 6.25629500
-26.72641000 6.25629500
-26.70593000 5.35905000
-26.68545000 4.46180600
-26.66497000 5.35905000
-26.64449000 5.35905000
-26.62401000 4.46180600
-26.60353000 5.35905000
-26.58305000 3.56151000
-26.56257000 3.56151000
-26.54209000 3.56151000
-26.52161000 3.56151000
-26.50113000 3.56151000
-26.48065000 3.56151000
-26.46017000 3.56151000
-26.43969000 3.56151000
-26.41921000 3.56151000
-26.39873000 3.56151000
-26.37825000 3.56151000
-26.35777000 2.66426600
-26.33729000 3.56151000
-26.31681000 3.56151000
-26.29633000 3.56151000
-26.27585000 3.56151000
-26.25537000 3.56151000
-26.23489000 3.56151000
-26.21441000 3.56151000
-26.19393000 3.56151000
-26.17345000 2.66426600
-26.15297000 3.56151000
-26.13249000 3.56151000
-26.11201000 3.56151000
-26.09153000 3.56151000
-26.07105000 3.56151000
-26.05057000 2.66426600
-26.03009000 2.66426600
-26.00961000 3.56151000
-25.98913000 2.66426600
-25.96865000 3.56151000
-25.94817000 3.56151000
-25.92769000 3.56151000
-25.90721000 3.56151000
-25.88673000 3.56151000
-25.86625000 2.66426600
-25.84577000 2.66426600
-25.82529000 2.66426600
-25.80481000 3.56151000
-25.78433000 3.56151000
-25.76385000 3.56151000
-25.74337000 3.56151000
-25.72289000 3.56151000
-25.70241000 2.66426600
-25.68193000 2.66426600
-25.66145000 2.66426600
-25.64097000 2.66426600
-25.62049000 3.56151000
-25.60001000 3.56151000
-25.57953000 3.56151000
-25.55905000 2.66426600
-25.53857000 2.66426600
-25.51809000 1.76397000
-25.49761000 2.66426600
-25.47713000 2.66426600
-25.45665000 3.56151000
-25.43617000 3.56151000
-25.41569000 3.56151000
-25.39521000 3.56151000
-25.37473000 2.66426600
-25.35425000 3.56151000
-25.33377000 1.76397000
-25.31329000 2.66426600
-25.29281000 3.56151000
-25.27233000 3.56151000
-25.25185000 3.56151000
-25.23137000 2.66426600
-25.21089000 3.56151000
-25.19041000 2.66426600
-25.16993000 2.66426600
-25.14945000 2.66426600
-25.12897000 2.66426600
-25.10849000 2.66426600
-25.08801000 2.66426600
-25.06753000 3.56151000
-25.04705000 3.56151000
-25.02657000 2.66426600
-25.00609000 1.76397000
-24.98561000 2.66426600
-24.96513000 2.66426600
-24.94465000 3.56151000
-24.92417000 3.56151000
-24.90369000 3.56151000
-24.88321000 3.56151000
-24.86273000 2.66426600
-24.84225000 2.66426600
-24.82177000 1.76397000
-24.80129000 2.66426600
-24.78081000 3.56151000
-24.76033000 2.66426600
-24.73985000 3.56151000
-24.71937000 2.66426600
-24.69889000 2.66426600
-24.67841000 3.56151000
-24.65793000 2.66426600
-24.63745000 2.66426600
-24.61697000 3.56151000
-24.59649000 3.56151000
-24.57601000 2.66426600
-24.55553000 3.56151000
-24.53505000 53.90789000
-24.51457000 51.21006000
-24.49409000 46.71468000
-24.47361000 44.01685000
-24.45313000 40.42177000
-24.43265000 37.72393000
-24.41217000 35.92639000
-24.39169000 32.32826000
-24.37121000 30.53072000
-24.35073000 27.83288000
-24.33025000 26.03534000
-24.30977000 23.33750000
-24.28929000 21.53996000
-24.26881000 21.53996000
-24.24833000 18.84213000
-24.22785000 17.94488000
-24.20737000 17.04459000
-24.18689000 16.14734000
-24.16641000 15.24705000
-24.14593000 13.44951000
-24.12545000 11.65197000
-24.10497000 11.65197000
-24.08449000 10.75167000
-24.06401000 10.75167000
-24.04353000 10.75167000
-24.02305000 8.95413000
-24.00257000 8.95413000
-23.98209000 7.15659000
-23.96161000 7.15659000
-23.94113000 7.15659000
-23.92065000 7.15659000
-23.90017000 7.15659000
-23.87969000 6.25629500
-23.85921000 6.25629500
-23.83873000 6.25629500
-23.81825000 5.35905000
-23.79777000 3.56151000
-23.77729000 5.35905000
-23.75681000 5.35905000
-23.73633000 4.46180600
-23.71585000 5.35905000
-23.69537000 4.46180600
-23.67489000 4.46180600
-23.65441000 4.46180600
-23.63393000 4.46180600
-23.61345000 3.56151000
-23.59297000 3.56151000
-23.57249000 3.56151000
-23.55201000 3.56151000
-23.53153000 4.46180600
-23.51105000 3.56151000
-23.49057000 3.56151000
-23.47009000 2.66426600
-23.44961000 3.56151000
-23.42913000 3.56151000
-23.40865000 3.56151000
-23.38817000 3.56151000
-23.36769000 3.56151000
-23.34721000 3.56151000
-23.32673000 3.56151000
-23.30625000 3.56151000
-23.28577000 2.66426600
-23.26529000 2.66426600
-23.24481000 3.56151000
-23.22433000 3.56151000
-23.20385000 3.56151000
-23.18337000 2.66426600
-23.16289000 2.66426600
-23.14241000 2.66426600
-23.12193000 2.66426600
-23.10145000 1.76397000
-23.08097000 3.56151000
-23.06049000 3.56151000
-23.04001000 2.66426600
-23.01953000 3.56151000
-22.99905000 3.56151000
-22.97857000 2.66426600
-22.95809000 2.66426600
-22.93761000 2.66426600
-22.91713000 3.56151000
-22.89665000 2.66426600
-22.87617000 3.56151000
-22.85569000 3.56151000
-22.83521000 3.56151000
-22.81473000 2.66426600
-22.79425000 2.66426600
-22.77377000 1.76397000
-22.75329000 2.66426600
-22.73281000 3.56151000
-22.71233000 2.66426600
-22.69185000 3.56151000
-22.67137000 3.56151000
-22.65089000 2.66426600
-22.63041000 2.66426600
-22.60993000 2.66426600
-22.58945000 2.66426600
-22.56897000 2.66426600
-22.54849000 3.56151000
-22.52801000 2.66426600
-22.50753000 3.56151000
-22.48705000 2.66426600
-22.46657000 2.66426600
-22.44609000 2.66426600
-22.42561000 2.66426600
-22.40513000 3.56151000
-22.38465000 3.56151000
-22.36417000 3.56151000
-22.34369000 2.66426600
-22.32321000 3.56151000
-22.30273000 3.56151000
-22.28225000 2.66426600
-22.26177000 1.76397000
-22.24129000 3.56151000
-22.22081000 3.56151000
-22.20033000 2.66426600
-22.17985000 3.56151000
-22.15937000 3.56151000
-22.13889000 3.56151000
-22.11841000 1.76397000
-22.09793000 5.35905000
-22.07745000 4.46180600
-22.05697000 5.35905000
-22.03649000 6.25629500
-22.01601000 5.35905000
-21.99553000 6.25629500
-21.97505000 4.46180600
-21.95457000 4.46180600
-21.93409000 3.56151000
-21.91361000 3.56151000
-21.89313000 4.46180600
-21.87265000 4.46180600
-21.85217000 4.46180600
-21.83169000 3.56151000
-21.81121000 3.56151000
-21.79073000 3.56151000
-21.77025000 3.56151000
-21.74977000 3.56151000
-21.72929000 3.56151000
-21.70881000 3.56151000
-21.68833000 3.56151000
-21.66785000 3.56151000
-21.64737000 3.56151000
-21.62689000 3.56151000
-21.60641000 2.66426600
-21.58593000 3.56151000
-21.56545000 2.66426600
-21.54497000 3.56151000
-21.52449000 3.56151000
-21.50401000 3.56151000
-21.48353000 3.56151000
-21.46305000 2.66426600
-21.44257000 3.56151000
-21.42209000 1.76397000
-21.40161000 2.66426600
-21.38113000 3.56151000
-21.36065000 2.66426600
-21.34017000 3.56151000
-21.31969000 2.66426600
-21.29921000 3.56151000
-21.27873000 2.66426600
-21.25825000 2.66426600
-21.23777000 2.66426600
-21.21729000 2.66426600
-21.19681000 3.56151000
-21.17633000 3.56151000
-21.15585000 3.56151000
-21.13537000 2.66426600
-21.11489000 2.66426600
-21.09441000 2.66426600
-21.07393000 2.66426600
-21.05345000 2.66426600
-21.03297000 2.66426600
-21.01249000 3.56151000
-20.99201000 3.56151000
-20.97153000 3.56151000
-20.95105000 3.56151000
-20.93057000 2.66426600
-20.91009000 2.66426600
-20.88961000 2.66426600
-20.86913000 2.66426600
-20.84865000 2.66426600
-20.82817000 3.56151000
-20.80769000 2.66426600
-20.78721000 2.66426600
-20.76673000 1.76397000
-20.74625000 2.66426600
-20.72577000 1.76397000
-20.70529000 3.56151000
-20.68481000 3.56151000
-20.66433000 2.66426600
-20.64385000 3.56151000
-20.62337000 2.66426600
-20.60289000 2.66426600
-20.58241000 2.66426600
-20.56193000 2.66426600
-20.54145000 2.66426600
-20.52097000 2.66426600
-20.50049000 3.56151000
-20.48001000 2.66426600
-20.45953000 2.66426600
-20.43905000 2.66426600
-20.41857000 2.66426600
-20.39809000 1.76397000
-20.37761000 2.66426600
-20.35713000 2.66426600
-20.33665000 2.66426600
-20.31617000 3.56151000
-20.29569000 2.66426600
-20.27521000 2.66426600
-20.25473000 1.76397000
-20.23425000 2.66426600
-20.21377000 1.76397000
-20.19329000 2.66426600
-20.17281000 2.66426600
-20.15233000 2.66426600
-20.13185000 3.56151000
-20.11137000 2.66426600
-20.09089000 2.66426600
-20.07041000 1.76397000
-20.04993000 2.66426600
-20.02945000 2.66426600
-20.00897000 2.66426600
-19.98849000 3.56151000
-19.96801000 2.66426600
-19.94753000 3.56151000
-19.92705000 3.56151000
-19.90657000 2.66426600
-19.88609000 1.76397000
-19.86561000 2.66426600
-19.84513000 3.56151000
-19.82465000 2.66426600
-19.80417000 3.56151000
-19.78369000 2.66426600
-19.76321000 2.66426600
-19.74273000 1.76397000
-19.72225000 2.66426600
-19.70177000 2.66426600
-19.68129000 2.66426600
-19.66081000 3.56151000
-19.64033000 3.56151000
-19.61985000 8.05383400
-19.59937000 8.05383400
-19.57889000 7.15659000
-19.55841000 7.15659000
-19.53793000 7.15659000
-19.51745000 6.25629500
-19.49697000 6.25629500
-19.47649000 6.25629500
-19.45601000 6.25629500
-19.43553000 6.25629500
-19.41505000 5.35905000
-19.39457000 5.35905000
-19.37409000 4.46180600
-19.35361000 5.35905000
-19.33313000 5.35905000
-19.31265000 4.46180600
-19.29217000 5.35905000
-19.27169000 3.56151000
-19.25121000 3.56151000
-19.23073000 3.56151000
-19.21025000 3.56151000
-19.18977000 3.56151000
-19.16929000 3.56151000
-19.14881000 4.46180600
-19.12833000 3.56151000
-19.10785000 3.56151000
-19.08737000 3.56151000
-19.06689000 3.56151000
-19.04641000 2.66426600
-19.02593000 3.56151000
-19.00545000 3.56151000
-18.98497000 3.56151000
-18.96449000 3.56151000
-18.94401000 2.66426600
-18.92353000 3.56151000
-18.90305000 2.66426600
-18.88257000 2.66426600
-18.86209000 2.66426600
-18.84161000 2.66426600
-18.82113000 3.56151000
-18.80065000 2.66426600
-18.78017000 3.56151000
-18.75969000 2.66426600
-18.73921000 2.66426600
-18.71873000 1.76397000
-18.69825000 2.66426600
-18.67777000 1.76397000
-18.65729000 3.56151000
-18.63681000 3.56151000
-18.61633000 2.66426600
-18.59585000 3.56151000
-18.57537000 3.56151000
-18.55489000 2.66426600
-18.53441000 1.76397000
-18.51393000 2.66426600
-18.49345000 2.66426600
-18.47297000 2.66426600
-18.45249000 3.56151000
-18.43201000 2.66426600
-18.41153000 2.66426600
-18.39105000 2.66426600
-18.37057000 2.66426600
-18.35009000 1.76397000
-18.32961000 2.66426600
-18.30913000 2.66426600
-18.28865000 2.66426600
-18.26817000 3.56151000
-18.24769000 2.66426600
-18.22721000 2.66426600
-18.20673000 1.76397000
-18.18625000 2.66426600
-18.16577000 2.66426600
-18.14529000 2.66426600
-18.12481000 3.56151000
-18.10433000 2.66426600
-18.08385000 3.56151000
-18.06337000 2.66426600
-18.04289000 2.66426600
-18.02241000 1.76397000
-18.00193000 2.66426600
-17.98145000 3.56151000
-17.96097000 2.66426600
-17.94049000 2.66426600
-17.92001000 2.66426600
-17.89953000 2.66426600
-17.87905000 2.66426600
-17.85857000 2.66426600
-17.83809000 2.66426600
-17.81761000 2.66426600
-17.79713000 3.56151000
-17.77665000 2.66426600
-17.75617000 3.56151000
-17.73569000 2.66426600
-17.71521000 2.66426600
-17.69473000 1.76397000
-17.67425000 2.66426600
-17.65377000 2.66426600
-17.63329000 2.66426600
-17.61281000 3.56151000
-17.59233000 2.66426600
-17.57185000 2.66426600
-17.55137000 2.66426600
-17.53089000 2.66426600
-17.51041000 2.66426600
-17.48993000 2.66426600
-17.46945000 3.56151000
-17.44897000 2.66426600
-17.42849000 3.56151000
-17.40801000 2.66426600
-17.38753000 2.66426600
-17.36705000 2.66426600
-17.34657000 2.66426600
-17.32609000 2.66426600
-17.30561000 2.66426600
-17.28513000 3.56151000
-17.26465000 2.66426600
-17.24417000 3.56151000
-17.22369000 2.66426600
-17.20321000 2.66426600
-17.18273000 2.66426600
-17.16225000 2.66426600
-17.14177000 22.44026000
-17.12129000 21.53996000
-17.10081000 20.64272000
-17.08033000 18.84213000
-17.05985000 17.94488000
-17.03937000 17.04459000
-17.01889000 15.24705000
-16.99841000 13.44951000
-16.97793000 13.44951000
-16.95745000 13.44951000
-16.93697000 11.65197000
-16.91649000 10.75167000
-16.89601000 9.85137500
-16.87553000 9.85137500
-16.85505000 7.15659000
-16.83457000 8.05383400
-16.81409000 7.15659000
-16.79361000 7.15659000
-16.77313000 7.15659000
-16.75265000 7.15659000
-16.73217000 7.15659000
-16.71169000 6.25629500
-16.69121000 5.35905000
-16.67073000 5.35905000
-16.65025000 5.35905000
-16.62977000 5.35905000
-16.60929000 5.35905000
-16.58881000 5.35905000
-16.56833000 4.46180600
-16.54785000 4.46180600
-16.52737000 3.56151000
-16.50689000 3.56151000
-16.48641000 3.56151000
-16.46593000 3.56151000
-16.44545000 3.56151000
-16.42497000 3.56151000
-16.40449000 4.46180600
-16.38401000 3.56151000
-16.36353000 3.56151000
-16.34305000 2.66426600
-16.32257000 3.56151000
-16.30209000 2.66426600
-16.28161000 2.66426600
-16.26113000 3.56151000
-16.24065000 3.56151000
-16.22017000 3.56151000
-16.19969000 3.56151000
-16.17921000 3.56151000
-16.15873000 2.66426600
-16.13825000 3.56151000
-16.11777000 3.56151000
-16.09729000 3.56151000
-16.07681000 3.56151000
-16.05633000 3.56151000
-16.03585000 3.56151000
-16.01537000 2.66426600
-15.99489000 2.66426600
-15.97441000 1.76397000
-15.95393000 2.66426600
-15.93345000 3.56151000
-15.91297000 2.66426600
-15.89249000 3.56151000
-15.87201000 2.66426600
-15.85153000 2.66426600
-15.83105000 1.76397000
-15.81057000 2.66426600
-15.79009000 2.66426600
-15.76961000 2.66426600
-15.74913000 3.56151000
-15.72865000 2.66426600
-15.70817000 3.56151000
-15.68769000 2.66426600
-15.66721000 2.66426600
-15.64673000 2.66426600
-15.62625000 3.56151000
-15.60577000 3.56151000
-15.58529000 3.56151000
-15.56481000 3.56151000
-15.54433000 3.56151000
-15.52385000 2.66426600
-15.50337000 3.56151000
-15.48289000 2.66426600
-15.46241000 1.76397000
-15.44193000 2.66426600
-15.42145000 3.56151000
-15.40097000 2.66426600
-15.38049000 3.56151000
-15.36001000 2.66426600
-15.33953000 2.66426600
-15.31905000 2.66426600
-15.29857000 2.66426600
-15.27809000 2.66426600
-15.25761000 2.66426600
-15.23713000 3.56151000
-15.21665000 2.66426600
-15.19617000 3.56151000
-15.17569000 2.66426600
-15.15521000 2.66426600
-15.13473000 2.66426600
-15.11425000 3.56151000
-15.09377000 3.56151000
-15.07329000 2.66426600
-15.05281000 3.56151000
-15.03233000 3.56151000
-15.01185000 3.56151000
-14.99137000 2.66426600
-14.97089000 2.66426600
-14.95041000 2.66426600
-14.92993000 3.56151000
-14.90945000 2.66426600
-14.88897000 3.56151000
-14.86849000 3.56151000
-14.84801000 2.66426600
-14.82753000 2.66426600
-14.80705000 2.66426600
-14.78657000 2.66426600
-14.76609000 2.66426600
-14.74561000 2.66426600
-14.72513000 3.56151000
-14.70465000 3.56151000
-14.68417000 99.99999000
-14.66369000 99.99999000
-14.64321000 97.96136000
-14.62273000 89.86785000
-14.60225000 84.47523000
-14.58177000 78.18231000
-14.56129000 71.88635000
-14.54081000 67.39098000
-14.52033000 61.09805000
-14.49985000 57.50298000
-14.47937000 52.10730000
-14.45889000 48.51222000
-14.43841000 44.91714000
-14.41793000 41.31901000
-14.39745000 38.62117000
-14.37697000 35.92639000
-14.35649000 34.12885000
-14.33601000 30.53072000
-14.31553000 28.73318000
-14.29505000 25.13810000
-14.27457000 25.13810000
-14.25409000 23.33750000
-14.23361000 21.53996000
-14.21313000 20.64272000
-14.19265000 18.84213000
-14.17217000 17.94488000
-14.15169000 16.14734000
-14.13121000 14.34675000
-14.11073000 13.44951000
-14.09025000 13.44951000
-14.06977000 12.54921000
-14.04929000 11.65197000
-14.02881000 10.75167000
-14.00833000 9.85137500
-13.98785000 9.85137500
-13.96737000 7.15659000
-13.94689000 8.05383400
-13.92641000 7.15659000
-13.90593000 7.15659000
-13.88545000 7.15659000
-13.86497000 7.15659000
-13.84449000 7.15659000
-13.82401000 6.25629500
-13.80353000 6.25629500
-13.78305000 4.46180600
-13.76257000 5.35905000
-13.74209000 5.35905000
-13.72161000 5.35905000
-13.70113000 5.35905000
-13.68065000 4.46180600
-13.66017000 5.35905000
-13.63969000 3.56151000
-13.61921000 3.56151000
-13.59873000 3.56151000
-13.57825000 3.56151000
-13.55777000 3.56151000
-13.53729000 3.56151000
-13.51681000 4.46180600
-13.49633000 3.56151000
-13.47585000 3.56151000
-13.45537000 1.76397000
-13.43489000 3.56151000
-13.41441000 2.66426600
-13.39393000 3.56151000
-13.37345000 3.56151000
-13.35297000 2.66426600
-13.33249000 3.56151000
-13.31201000 3.56151000
-13.29153000 3.56151000
-13.27105000 2.66426600
-13.25057000 3.56151000
-13.23009000 3.56151000
-13.20961000 3.56151000
-13.18913000 3.56151000
-13.16865000 3.56151000
-13.14817000 3.56151000
-13.12769000 2.66426600
-13.10721000 2.66426600
-13.08673000 2.66426600
-13.06625000 3.56151000
-13.04577000 3.56151000
-13.02529000 3.56151000
-13.00481000 3.56151000
-12.98433000 2.66426600
-12.96385000 2.66426600
-12.94337000 1.76397000
-12.92289000 3.56151000
-12.90241000 2.66426600
-12.88193000 2.66426600
-12.86145000 3.56151000
-12.84097000 2.66426600
-12.82049000 3.56151000
-12.80001000 2.66426600
-12.77953000 2.66426600
-12.75905000 1.76397000
-12.73857000 3.56151000
-12.71809000 3.56151000
-12.69761000 2.66426600
-12.67713000 3.56151000
-12.65665000 2.66426600
-12.63617000 3.56151000
-12.61569000 3.56151000
-12.59521000 2.66426600
-12.57473000 2.66426600
-12.55425000 2.66426600
-12.53377000 3.56151000
-12.51329000 2.66426600
-12.49281000 3.56151000
-12.47233000 2.66426600
-12.45185000 2.66426600
-12.43137000 1.76397000
-12.41089000 2.66426600
-12.39041000 2.66426600
-12.36993000 2.66426600
-12.34945000 3.56151000
-12.32897000 2.66426600
-12.30849000 3.56151000
-12.28801000 3.56151000
-12.26753000 2.66426600
-12.24705000 3.56151000
-12.22657000 10.75167000
-12.20609000 12.54921000
-12.18561000 10.75167000
-12.16513000 10.75167000
-12.14465000 9.85137500
-12.12417000 8.95413000
-12.10369000 8.05383400
-12.08321000 8.05383400
-12.06273000 7.15659000
-12.04225000 7.15659000
-12.02177000 7.15659000
-12.00129000 6.25629500
-11.98081000 7.15659000
-11.96033000 6.25629500
-11.93985000 6.25629500
-11.91937000 5.35905000
-11.89889000 5.35905000
-11.87841000 5.35905000
-11.85793000 5.35905000
-11.83745000 5.35905000
-11.81697000 3.56151000
-11.79649000 5.35905000
-11.77601000 4.46180600
-11.75553000 4.46180600
-11.73505000 3.56151000
-11.71457000 4.46180600
-11.69409000 4.46180600
-11.67361000 3.56151000
-11.65313000 4.46180600
-11.63265000 3.56151000
-11.61217000 3.56151000
-11.59169000 3.56151000
-11.57121000 3.56151000
-11.55073000 2.66426600
-11.53025000 3.56151000
-11.50977000 3.56151000
-11.48929000 3.56151000
-11.46881000 3.56151000
-11.44833000 3.56151000
-11.42785000 3.56151000
-11.40737000 2.66426600
-11.38689000 3.56151000
-11.36641000 3.56151000
-11.34593000 3.56151000
-11.32545000 3.56151000
-11.30497000 3.56151000
-11.28449000 3.56151000
-11.26401000 3.56151000
-11.24353000 2.66426600
-11.22305000 2.66426600
-11.20257000 2.66426600
-11.18209000 3.56151000
-11.16161000 3.56151000
-11.14113000 3.56151000
-11.12065000 3.56151000
-11.10017000 3.56151000
-11.07969000 2.66426600
-11.05921000 2.66426600
-11.03873000 1.76397000
-11.01825000 3.56151000
-10.99777000 3.56151000
-10.97729000 2.66426600
-10.95681000 3.56151000
-10.93633000 2.66426600
-10.91585000 2.66426600
-10.89537000 2.66426600
-10.87489000 3.56151000
-10.85441000 2.66426600
-10.83393000 3.56151000
-10.81345000 3.56151000
-10.79297000 3.56151000
-10.77249000 3.56151000
-10.75201000 3.56151000
-10.73153000 2.66426600
-10.71105000 2.66426600
-10.69057000 3.56151000
-10.67009000 3.56151000
-10.64961000 3.56151000
-10.62913000 3.56151000
-10.60865000 2.66426600
-10.58817000 2.66426600
-10.56769000 2.66426600
-10.54721000 3.56151000
-10.52673000 2.66426600
-10.50625000 2.66426600
-10.48577000 3.56151000
-10.46529000 2.66426600
-10.44481000 3.56151000
-10.42433000 2.66426600
-10.40385000 2.66426600
-10.38337000 2.66426600
-10.36289000 2.66426600
-10.34241000 3.56151000
-10.32193000 2.66426600
-10.30145000 3.56151000
-10.28097000 3.56151000
-10.26049000 3.56151000
-10.24001000 2.66426600
-10.21953000 2.66426600
-10.19905000 2.66426600
-10.17857000 2.66426600
-10.15809000 3.56151000
-10.13761000 3.56151000
-10.11713000 3.56151000
-10.09665000 2.66426600
-10.07617000 3.56151000
-10.05569000 2.66426600
-10.03521000 2.66426600
-10.01473000 2.66426600
-9.99424800 3.56151000
-9.97376800 3.56151000
-9.95328700 2.66426600
-9.93280800 3.56151000
-9.91232800 2.66426600
-9.89184800 2.66426600
-9.87136700 1.76397000
-9.85088700 2.66426600
-9.83040800 3.56151000
-9.80992800 3.56151000
-9.78944800 3.56151000
-9.76896800 3.56151000
-9.74848700 7.15659000
-9.72800800 6.25629500
-9.70752800 6.25629500
-9.68704700 5.35905000
-9.66656800 5.35905000
-9.64608800 6.25629500
-9.62560800 5.35905000
-9.60512700 5.35905000
-9.58464700 5.35905000
-9.56416800 5.35905000
-9.54368800 3.56151000
-9.52320900 4.46180600
-9.50272800 3.56151000
-9.48224700 4.46180600
-9.46176800 4.46180600
-9.44128800 3.56151000
-9.42080800 4.46180600
-9.40032800 3.56151000
-9.37984800 3.56151000
-9.35936800 2.66426600
-9.33888700 3.56151000
-9.31840800 3.56151000
-9.29792800 3.56151000
-9.27744800 3.56151000
-9.25696800 3.56151000
-9.23648700 3.56151000
-9.21600800 3.56151000
-9.19552800 3.56151000
-9.17504800 2.66426600
-9.15456800 3.56151000
-9.13408800 3.56151000
-9.11360800 3.56151000
-9.09312800 3.56151000
-9.07264700 3.56151000
-9.05216800 3.56151000
-9.03168800 2.66426600
-9.01120900 3.56151000
-8.99072700 2.66426600
-8.97024700 3.56151000
-8.94976800 3.56151000
-8.92928800 3.56151000
-8.90880800 3.56151000
-8.88832800 3.56151000
-8.86784700 2.66426600
-8.84736800 2.66426600
-8.82688800 3.56151000
-8.80640800 3.56151000
-8.78592800 2.66426600
-8.76544800 3.56151000
-8.74496800 3.56151000
-8.72448700 3.56151000
-8.70400700 2.66426600
-8.68352800 2.66426600
-8.66304800 2.66426600
-8.64256900 3.56151000
-8.62208700 2.66426600
-8.60160700 3.56151000
-8.58112800 3.56151000
-8.56064800 2.66426600
-8.54016800 3.56151000
-8.51968800 2.66426600
-8.49920700 2.66426600
-8.47872800 2.66426600
-8.45824700 3.56151000
-8.43776800 3.56151000
-8.41728800 2.66426600
-8.39680800 3.56151000
-8.37632800 2.66426600
-8.35584700 2.66426600
-8.33536800 2.66426600
-8.31488800 3.56151000
-8.29440800 3.56151000
-8.27392800 3.56151000
-8.25344800 3.56151000
-8.23296800 2.66426600
-8.21248800 3.56151000
-8.19200700 1.76397000
-8.17152800 2.66426600
-8.15104800 2.66426600
-8.13056900 3.56151000
-8.11008700 3.56151000
-8.08960700 3.56151000
-8.06912800 3.56151000
-8.04864800 3.56151000
-8.02816900 3.56151000
-8.00768800 2.66426600
-7.98720800 2.66426600
-7.96672800 3.56151000
-7.94624800 2.66426600
-7.92576700 3.56151000
-7.90528800 2.66426600
-7.88480800 3.56151000
-7.86432800 2.66426600
-7.84384700 3.56151000
-7.82336800 1.76397000
-7.80288800 3.56151000
-7.78240800 3.56151000
-7.76192800 3.56151000
-7.74144800 3.56151000
-7.72096800 2.66426600
-7.70048800 3.56151000
-7.68000800 1.76397000
-7.65952800 3.56151000
-7.63904800 2.66426600
-7.61856800 3.56151000
-7.59808800 3.56151000
-7.57760800 2.66426600
-7.55712700 3.56151000
-7.53664800 3.56151000
-7.51616800 2.66426600
-7.49568800 2.66426600
-7.47520800 2.66426600
-7.45472800 3.56151000
-7.43424800 3.56151000
-7.41376800 3.56151000
-7.39328800 3.56151000
-7.37280800 3.56151000
-7.35232800 3.56151000
-7.33184800 2.66426600
-7.31136800 3.56151000
-7.29088800 9.85137500
-7.27040800 9.85137500
-7.24992800 9.85137500
-7.22944800 8.95413000
-7.20896800 8.05383400
-7.18848800 7.15659000
-7.16800800 6.25629500
-7.14752800 7.15659000
-7.12704800 6.25629500
-7.10656800 6.25629500
-7.08608800 7.15659000
-7.06560800 6.25629500
-7.04512800 6.25629500
-7.02464800 6.25629500
-7.00416800 5.35905000
-6.98368700 4.46180600
-6.96320800 5.35905000
-6.94272800 5.35905000
-6.92224800 4.46180600
-6.90176800 5.35905000
-6.88128800 3.56151000
-6.86080800 4.46180600
-6.84032800 3.56151000
-6.81984800 3.56151000
-6.79936800 3.56151000
-6.77888800 3.56151000
-6.75840800 3.56151000
-6.73792800 3.56151000
-6.71744800 3.56151000
-6.69696800 3.56151000
-6.67648700 3.56151000
-6.65600800 2.66426600
-6.63552800 3.56151000
-6.61504800 2.66426600
-6.59456800 3.56151000
-6.57408800 3.56151000
-6.55360800 3.56151000
-6.53312800 3.56151000
-6.51264800 3.56151000
-6.49216700 3.56151000
-6.47168800 2.66426600
-6.45120800 3.56151000
-6.43072800 3.56151000
-6.41024800 3.56151000
-6.38976800 3.56151000
-6.36928700 3.56151000
-6.34880800 3.56151000
-6.32832800 2.66426600
-6.30784800 3.56151000
-6.28736800 2.66426600
-6.26688800 3.56151000
-6.24640800 3.56151000
-6.22592800 3.56151000
-6.20544800 3.56151000
-6.18496800 3.56151000
-6.16448800 2.66426600
-6.14400800 1.76397000
-6.12352800 2.66426600
-6.10304800 2.66426600
-6.08256800 2.66426600
-6.06208800 3.56151000
-6.04160800 3.56151000
-6.02112800 3.56151000
-6.00064800 2.66426600
-5.98016800 2.66426600
-5.95968800 1.76397000
-5.93920800 3.56151000
-5.91872800 3.56151000
-5.89824800 2.66426600
-5.87776800 3.56151000
-5.85728800 2.66426600
-5.83680800 3.56151000
-5.81632800 3.56151000
-5.79584700 3.56151000
-5.77536800 2.66426600
-5.75488800 2.66426600
-5.73440800 3.56151000
-5.71392800 3.56151000
-5.69344800 3.56151000
-5.67296800 3.56151000
-5.65248800 2.66426600
-5.63200800 1.76397000
-5.61152800 2.66426600
-5.59104800 2.66426600
-5.57056800 2.66426600
-5.55008800 3.56151000
-5.52960800 2.66426600
-5.50912800 3.56151000
-5.48864700 2.66426600
-5.46816800 2.66426600
-5.44768800 1.76397000
-5.42720800 3.56151000
-5.40672800 3.56151000
-5.38624800 2.66426600
-5.36576800 3.56151000
-5.34528800 3.56151000
-5.32480800 3.56151000
-5.30432700 1.76397000
-5.28384800 2.66426600
-5.26336800 2.66426600
-5.24288800 3.56151000
-5.22240800 3.56151000
-5.20192800 2.66426600
-5.18144800 3.56151000
-5.16096800 2.66426600
-5.14048800 3.56151000
-5.12000800 2.66426600
-5.09952800 2.66426600
-5.07904800 2.66426600
-5.05856800 2.66426600
-5.03808800 3.56151000
-5.01760800 2.66426600
-4.99712800 3.56151000
-4.97664800 3.56151000
-4.95616800 2.66426600
-4.93568800 2.66426600
-4.91520800 3.56151000
-4.89472800 3.56151000
-4.87424800 2.66426600
-4.85376800 3.56151000
-4.83328800 57.50298000
-4.81280800 57.50298000
-4.79232800 53.00760000
-4.77184800 49.41252000
-4.75136800 44.91714000
-4.73088800 42.21930000
-4.71040800 39.52147000
-4.68992800 35.92639000
-4.66944800 34.12885000
-4.64896800 31.43101000
-4.62848800 28.73318000
-4.60800700 26.03534000
-4.58752800 25.13810000
-4.56704800 23.33750000
-4.54656800 21.53996000
-4.52608800 20.64272000
-4.50560800 17.94488000
-4.48512800 17.94488000
-4.46464800 17.04459000
-4.44416800 14.34675000
-4.42368800 13.44951000
-4.40320800 13.44951000
-4.38272800 12.54921000
-4.36224800 10.75167000
-4.34176800 11.65197000
-4.32128800 9.85137500
-4.30080700 9.85137500
-4.28032800 7.15659000
-4.25984800 8.95413000
-4.23936800 7.15659000
-4.21888800 7.15659000
-4.19840800 7.15659000
-4.17792800 7.15659000
-4.15744800 7.15659000
-4.13696800 6.25629500
-4.11648800 5.35905000
-4.09600800 5.35905000
-4.07552800 5.35905000
-4.05504800 6.25629500
-4.03456800 5.35905000
-4.01408800 5.35905000
-3.99360800 4.46180600
-3.97312800 5.35905000
-3.95264800 4.46180600
-3.93216800 3.56151000
-3.91168800 3.56151000
-3.89120800 3.56151000
-3.87072800 3.56151000
-3.85024800 3.56151000
-3.82976800 4.46180600
-3.80928800 3.56151000
-3.78880800 3.56151000
-3.76832800 2.66426600
-3.74784800 3.56151000
-3.72736800 2.66426600
-3.70688800 3.56151000
-3.68640800 3.56151000
-3.66592800 3.56151000
-3.64544800 3.56151000
-3.62496800 2.66426600
-3.60448800 2.66426600
-3.58400800 2.66426600
-3.56352800 2.66426600
-3.54304800 3.56151000
-3.52256800 2.66426600
-3.50208800 3.56151000
-3.48160800 2.66426600
-3.46112800 3.56151000
-3.44064800 2.66426600
-3.42016800 2.66426600
-3.39968800 2.66426600
-3.37920800 2.66426600
-3.35872800 3.56151000
-3.33824800 3.56151000
-3.31776800 3.56151000
-3.29728800 2.66426600
-3.27680800 2.66426600
-3.25632800 1.76397000
-3.23584800 2.66426600
-3.21536800 2.66426600
-3.19488800 2.66426600
-3.17440800 3.56151000
-3.15392800 2.66426600
-3.13344800 3.56151000
-3.11296800 2.66426600
-3.09248800 2.66426600
-3.07200800 1.76397000
-3.05152800 2.66426600
-3.03104800 3.56151000
-3.01056800 2.66426600
-2.99008800 3.56151000
-2.96960800 2.66426600
-2.94912800 2.66426600
-2.92864800 2.66426600
-2.90816800 2.66426600
-2.88768800 1.76397000
-2.86720800 2.66426600
-2.84672800 3.56151000
-2.82624800 2.66426600
-2.80576800 3.56151000
-2.78528800 2.66426600
-2.76480800 2.66426600
-2.74432800 1.76397000
-2.72384800 2.66426600
-2.70336800 2.66426600
-2.68288800 2.66426600
-2.66240800 3.56151000
-2.64192800 2.66426600
-2.62144800 3.56151000
-2.60096800 2.66426600
-2.58048800 2.66426600
-2.56000800 1.76397000
-2.53952800 2.66426600
-2.51904800 3.56151000
-2.49856800 2.66426600
-2.47808800 3.56151000
-2.45760800 3.56151000
-2.43712800 3.56151000
-2.41664800 2.66426600
-2.39616800 2.66426600
-2.37568800 3.56151000
-2.35520800 10.75167000
-2.33472800 10.75167000
-2.31424800 9.85137500
-2.29376800 9.85137500
-2.27328800 8.95413000
-2.25280800 8.05383400
-2.23232800 7.15659000
-2.21184800 7.15659000
-2.19136800 6.25629500
-2.17088800 7.15659000
-2.15040800 7.15659000
-2.12992800 6.25629500
-2.10944800 6.25629500
-2.08896800 6.25629500
-2.06848800 5.35905000
-2.04800800 3.56151000
-2.02752800 5.35905000
-2.00704800 5.35905000
-1.98656800 5.35905000
-1.96608800 5.35905000
-1.94560800 3.56151000
-1.92512800 3.56151000
-1.90464800 3.56151000
-1.88416800 3.56151000
-1.86368800 3.56151000
-1.84320800 3.56151000
-1.82272800 3.56151000
-1.80224800 3.56151000
-1.78176800 3.56151000
-1.76128800 3.56151000
-1.74080800 3.56151000
-1.72032800 2.66426600
-1.69984800 3.56151000
-1.67936800 3.56151000
-1.65888800 3.56151000
-1.63840800 3.56151000
-1.61792800 3.56151000
-1.59744800 3.56151000
-1.57696800 3.56151000
-1.55648800 2.66426600
-1.53600800 2.66426600
-1.51552800 2.66426600
-1.49504800 3.56151000
-1.47456800 2.66426600
-1.45408800 3.56151000
-1.43360800 2.66426600
-1.41312800 2.66426600
-1.39264800 2.66426600
-1.37216800 2.66426600
-1.35168800 2.66426600
-1.33120800 2.66426600
-1.31072800 3.56151000
-1.29024800 2.66426600
-1.26976800 3.56151000
-1.24928800 2.66426600
-1.22880800 2.66426600
-1.20832800 2.66426600
-1.18784800 2.66426600
-1.16736800 2.66426600
-1.14688800 2.66426600
-1.12640800 3.56151000
-1.10592800 2.66426600
-1.08544800 2.66426600
-1.06496800 2.66426600
-1.04448800 2.66426600
-1.02400800 2.66426600
-1.00352800 2.66426600
-0.98304790 3.56151000
-0.96256790 2.66426600
-0.94208780 3.56151000
-0.92160790 2.66426600
-0.90112780 2.66426600
-0.88064780 2.66426600
-0.86016790 2.66426600
-0.83968780 1.76397000
-0.81920780 2.66426600
-0.79872790 3.56151000
-0.77824780 2.66426600
-0.75776780 3.56151000
-0.73728790 2.66426600
-0.71680780 2.66426600
-0.69632780 2.66426600
-0.67584790 2.66426600
-0.65536790 2.66426600
-0.63488780 2.66426600
-0.61440780 3.56151000
-0.59392790 3.56151000
-0.57344780 3.56151000
-0.55296780 2.66426600
-0.53248790 2.66426600
-0.51200780 2.66426600
-0.49152790 2.66426600
-0.47104780 3.56151000
-0.45056780 2.66426600
-0.43008790 3.56151000
-0.40960780 2.66426600
-0.38912790 2.66426600
-0.36864790 1.76397000
-0.34816780 2.66426600
-0.32768790 1.76397000
-0.30720790 2.66426600
-0.28672780 3.56151000
-0.26624780 2.66426600
-0.24576780 3.56151000
-0.22528790 2.66426600
-0.20480780 2.66426600
-0.18432780 1.76397000
-0.16384780 2.66426600
-0.14336780 3.56151000
-0.12288780 2.66426600
-0.10240780 3.56151000
-0.08192785 2.66426600
-0.06144785 2.66426600
-0.04096785 2.66426600
-0.02048785 2.66426600
-0.00000785 2.66426600
0.02047215 3.56151000
0.04095215 3.56151000
0.06143215 3.56151000
0.08191215 3.56151000
0.10239220 56.60268000
0.12287220 53.90789000
0.14335220 49.41252000
0.16383220 46.71468000
0.18431210 42.21930000
0.20479220 39.52147000
0.22527210 36.82363000
0.24575220 34.12885000
0.26623220 32.32826000
0.28671210 28.73318000
0.30719210 26.93563000
0.32767220 24.23780000
0.34815220 23.33750000
0.36863210 21.53996000
0.38911220 20.64272000
0.40959220 19.74242000
0.43007220 17.94488000
0.45055210 17.04459000
0.47103210 14.34675000
0.49151210 14.34675000
0.51199220 12.54921000
0.53247210 12.54921000
0.55295220 12.54921000
0.57343210 10.75167000
0.59391210 10.75167000
0.61439220 9.85137500
0.63487210 8.95413000
0.65535210 7.15659000
0.67583220 7.15659000
0.69631220 7.15659000
0.71679210 7.15659000
0.73727210 7.15659000
0.75775220 6.25629500
0.77823210 7.15659000
0.79871210 6.25629500
0.81919220 6.25629500
0.83967210 4.46180600
0.86015210 5.35905000
0.88063220 5.35905000
0.90111210 4.46180600
0.92159220 5.35905000
0.94207220 3.56151000
0.96255210 4.46180600
0.98303220 4.46180600
1.00351200 3.56151000
1.02399200 2.66426600
1.04447200 3.56151000
1.06495200 3.56151000
1.08543200 3.56151000
1.10591200 3.56151000
1.12639200 3.56151000
1.14687200 3.56151000
1.16735200 2.66426600
1.18783200 3.56151000
1.20831200 3.56151000
1.22879200 2.66426600
1.24927200 3.56151000
1.26975200 3.56151000
1.29023200 3.56151000
1.31071200 2.66426600
1.33119200 2.66426600
1.35167200 1.76397000
1.37215200 2.66426600
1.39263200 3.56151000
1.41311200 3.56151000
1.43359200 3.56151000
1.45407200 2.66426600
1.47455200 2.66426600
1.49503200 2.66426600
1.51551200 2.66426600
1.53599200 2.66426600
1.55647200 2.66426600
1.57695200 3.56151000
1.59743200 2.66426600
1.61791200 3.56151000
1.63839200 2.66426600
1.65887200 2.66426600
1.67935200 1.76397000
1.69983200 2.66426600
1.72031200 2.66426600
1.74079200 2.66426600
1.76127200 3.56151000
1.78175200 2.66426600
1.80223200 2.66426600
1.82271200 2.66426600
1.84319200 2.66426600
1.86367200 1.76397000
1.88415200 2.66426600
1.90463200 3.56151000
1.92511200 2.66426600
1.94559200 3.56151000
1.96607200 2.66426600
1.98655200 2.66426600
2.00703200 1.76397000
2.02751200 2.66426600
2.04799200 1.76397000
2.06847200 2.66426600
2.08895200 2.66426600
2.10943200 2.66426600
2.12991200 3.56151000
2.15039200 2.66426600
2.17087200 2.66426600
2.19135200 1.76397000
2.21183200 2.66426600
2.23231200 2.66426600
2.25279200 2.66426600
2.27327200 3.56151000
2.29375200 2.66426600
2.31423200 3.56151000
2.33471200 2.66426600
2.35519200 2.66426600
2.37567200 1.76397000
2.39615200 2.66426600
2.41663200 3.56151000
2.43711200 2.66426600
2.45759200 3.56151000
2.47807200 2.66426600
2.49855200 2.66426600
2.51903200 1.76397000
2.53951200 2.66426600
2.55999200 10.75167000
2.58047200 11.65197000
2.60095200 10.75167000
2.62143200 9.85137500
2.64191200 9.85137500
2.66239200 8.95413000
2.68287200 8.95413000
2.70335200 7.15659000
2.72383200 7.15659000
2.74431200 7.15659000
2.76479200 7.15659000
2.78527200 7.15659000
2.80575200 6.25629500
2.82623200 6.25629500
2.84671200 6.25629500
2.86719200 5.35905000
2.88767200 4.46180600
2.90815200 5.35905000
2.92863200 5.35905000
2.94911200 4.46180600
2.96959200 5.35905000
2.99007200 4.46180600
3.01055200 4.46180600
3.03103200 3.56151000
3.05151200 3.56151000
3.07199200 3.56151000
3.09247200 3.56151000
3.11295200 4.46180600
3.13343200 3.56151000
3.15391200 3.56151000
3.17439200 3.56151000
3.19487200 3.56151000
3.21535200 2.66426600
3.23583200 3.56151000
3.25631200 3.56151000
3.27679200 3.56151000
3.29727200 3.56151000
3.31775200 3.56151000
3.33823200 3.56151000
3.35871200 3.56151000
3.37919200 3.56151000
3.39967200 2.66426600
3.42015200 3.56151000
3.44063200 3.56151000
3.46111200 3.56151000
3.48159200 3.56151000
3.50207200 2.66426600
3.52255200 2.66426600
3.54303200 1.76397000
3.56351200 2.66426600
3.58399200 2.66426600
3.60447200 2.66426600
3.62495200 3.56151000
3.64543200 2.66426600
3.66591200 3.56151000
3.68639200 2.66426600
3.70687200 2.66426600
3.72735200 1.76397000
3.74783200 2.66426600
3.76831200 3.56151000
3.78879200 2.66426600
3.80927200 3.56151000
3.82975200 2.66426600
3.85023200 3.56151000
3.87071200 2.66426600
3.89119200 2.66426600
3.91167200 2.66426600
3.93215200 2.66426600
3.95263200 2.66426600
3.97311200 2.66426600
3.99359200 3.56151000
4.01407200 2.66426600
4.03455200 2.66426600
4.05503200 1.76397000
4.07551200 2.66426600
4.09599200 2.66426600
4.11647200 2.66426600
4.13695200 3.56151000
4.15743300 2.66426600
4.17791200 3.56151000
4.19839200 2.66426600
4.21887200 2.66426600
4.23935200 1.76397000
4.25983200 2.66426600
4.28031200 3.56151000
4.30079200 2.66426600
4.32127200 3.56151000
4.34175200 2.66426600
4.36223200 2.66426600
4.38271200 1.76397000
4.40319200 2.66426600
4.42367200 2.66426600
4.44415200 2.66426600
4.46463200 3.56151000
4.48511200 2.66426600
4.50559200 3.56151000
4.52607200 2.66426600
4.54655200 2.66426600
4.56703200 2.66426600
4.58751200 3.56151000
4.60799200 2.66426600
4.62847200 2.66426600
4.64895200 3.56151000
4.66943200 2.66426600
4.68991200 2.66426600
4.71039200 2.66426600
4.73087200 2.66426600
4.75135200 1.76397000
4.77183200 2.66426600
4.79231200 3.56151000
4.81279200 2.66426600
4.83327200 3.56151000
4.85375200 2.66426600
4.87423200 2.66426600
4.89471200 1.76397000
4.91519200 2.66426600
4.93567200 2.66426600
4.95615200 3.56151000
4.97663200 3.56151000
4.99711200 2.66426600
5.01759200 3.56151000
5.03807300 27.83288000
5.05855200 26.03534000
5.07903200 24.23780000
5.09951200 22.44026000
5.11999200 20.64272000
5.14047200 19.74242000
5.16095200 17.94488000
5.18143200 17.04459000
5.20191200 16.14734000
5.22239200 14.34675000
5.24287200 13.44951000
5.26335200 12.54921000
5.28383200 11.65197000
5.30431200 10.75167000
5.32479200 10.75167000
5.34527200 10.75167000
5.36575200 9.85137500
5.38623200 8.95413000
5.40671200 7.15659000
5.42719200 8.05383400
5.44767200 7.15659000
5.46815200 7.15659000
5.48863200 7.15659000
5.50911200 6.25629500
5.52959300 6.25629500
5.55007200 6.25629500
5.57055200 5.35905000
5.59103200 4.46180600
5.61151200 5.35905000
5.63199200 5.35905000
5.65247200 5.35905000
5.67295200 5.35905000
5.69343200 4.46180600
5.71391200 4.46180600
5.73439200 3.56151000
5.75487200 3.56151000
5.77535200 3.56151000
5.79583200 3.56151000
5.81631200 3.56151000
5.83679200 3.56151000
5.85727200 4.46180600
5.87775200 3.56151000
5.89823200 3.56151000
5.91871200 2.66426600
5.93919200 3.56151000
5.95967200 2.66426600
5.98015200 3.56151000
6.00063200 3.56151000
6.02111200 3.56151000
6.04159200 3.56151000
6.06207200 3.56151000
6.08255200 2.66426600
6.10303200 2.66426600
6.12351200 3.56151000
6.14399200 3.56151000
6.16447200 2.66426600
6.18495200 3.56151000
6.20543200 2.66426600
6.22591200 3.56151000
6.24639200 3.56151000
6.26687200 2.66426600
6.28735200 2.66426600
6.30783200 3.56151000
6.32831200 3.56151000
6.34879200 3.56151000
6.36927200 3.56151000
6.38975200 2.66426600
6.41023200 2.66426600
6.43071200 2.66426600
6.45119200 3.56151000
6.47167200 2.66426600
6.49215200 3.56151000
6.51263200 3.56151000
6.53311200 2.66426600
6.55359200 3.56151000
6.57407200 2.66426600
6.59455200 2.66426600
6.61503200 1.76397000
6.63551200 2.66426600
6.65599200 3.56151000
6.67647200 3.56151000
6.69695200 3.56151000
6.71743200 2.66426600
6.73791200 3.56151000
6.75839200 2.66426600
6.77887200 2.66426600
6.79935200 2.66426600
6.81983200 3.56151000
6.84031200 3.56151000
6.86079200 3.56151000
6.88127200 3.56151000
6.90175200 2.66426600
6.92223200 2.66426600
6.94271200 2.66426600
6.96319200 2.66426600
6.98367200 2.66426600
7.00415200 2.66426600
7.02463200 3.56151000
7.04511200 2.66426600
7.06559200 3.56151000
7.08607200 2.66426600
7.10655200 2.66426600
7.12703200 1.76397000
7.14751200 2.66426600
7.16799200 3.56151000
7.18847200 3.56151000
7.20895200 3.56151000
7.22943200 2.66426600
7.24991200 2.66426600
7.27039200 1.76397000
7.29087200 2.66426600
7.31135200 2.66426600
7.33183200 2.66426600
7.35231200 3.56151000
7.37279200 2.66426600
7.39327200 3.56151000
7.41375200 2.66426600
7.43423200 2.66426600
7.45471200 2.66426600
7.47519200 2.66426600
7.49567200 14.34675000
7.51615200 14.34675000
7.53663200 14.34675000
7.55711200 13.44951000
7.57759200 12.54921000
7.59807200 10.75167000
7.61855200 9.85137500
7.63903200 9.85137500
7.65951200 8.95413000
7.67999200 8.95413000
7.70047200 7.15659000
7.72095200 8.05383400
7.74143200 7.15659000
7.76191200 7.15659000
7.78239200 6.25629500
7.80287200 6.25629500
7.82335200 5.35905000
7.84383200 6.25629500
7.86431200 6.25629500
7.88479200 5.35905000
7.90527200 6.25629500
7.92575300 5.35905000
7.94623200 5.35905000
7.96671200 3.56151000
7.98719200 4.46180600
8.00767100 3.56151000
8.02815200 4.46180600
8.04863300 5.35905000
8.06911200 3.56151000
8.08959200 3.56151000
8.11007200 3.56151000
8.13055200 3.56151000
8.15103200 3.56151000
8.17151200 3.56151000
8.19199300 4.46180600
8.21247200 3.56151000
8.23295200 3.56151000
8.25343200 3.56151000
8.27391100 3.56151000
8.29439300 2.66426600
8.31487200 3.56151000
8.33535200 2.66426600
8.35583200 3.56151000
8.37631200 3.56151000
8.39679200 3.56151000
8.41727200 3.56151000
8.43775200 3.56151000
8.45823300 3.56151000
8.47871200 2.66426600
8.49919200 2.66426600
8.51967100 3.56151000
8.54015200 3.56151000
8.56063300 3.56151000
8.58111200 3.56151000
8.60159200 3.56151000
8.62207100 3.56151000
8.64255200 2.66426600
8.66303300 1.76397000
8.68351200 2.66426600
8.70399200 3.56151000
8.72447200 2.66426600
8.74495200 3.56151000
8.76543200 3.56151000
8.78591200 2.66426600
8.80639300 1.76397000
8.82687200 2.66426600
8.84735200 2.66426600
8.86783200 2.66426600
8.88831100 3.56151000
8.90879200 3.56151000
8.92927300 3.56151000
8.94975200 2.66426600
8.97023200 2.66426600
8.99071200 1.76397000
9.01119200 2.66426600
9.03167200 3.56151000
9.05215200 3.56151000
9.07263300 3.56151000
9.09311200 2.66426600
9.11359200 3.56151000
9.13407200 3.56151000
9.15455200 2.66426600
9.17503300 1.76397000
9.19551200 2.66426600
9.21599200 3.56151000
9.23647200 2.66426600
9.25695200 3.56151000
9.27743200 3.56151000
9.29791200 2.66426600
9.31839200 2.66426600
9.33887300 2.66426600
9.35935200 2.66426600
9.37983200 2.66426600
9.40031100 3.56151000
9.42079200 2.66426600
9.44127300 3.56151000
9.46175200 2.66426600
9.48223200 2.66426600
9.50271100 2.66426600
9.52319200 2.66426600
9.54367300 3.56151000
9.56415200 2.66426600
9.58463200 3.56151000
9.60511200 3.56151000
9.62559200 2.66426600
9.64607200 2.66426600
9.66655200 2.66426600
9.68703300 1.76397000
9.70751200 3.56151000
9.72799200 3.56151000
9.74847200 2.66426600
9.76895100 3.56151000
9.78943300 2.66426600
9.80991200 3.56151000
9.83039200 2.66426600
9.85087200 2.66426600
9.87135200 2.66426600
9.89183200 3.56151000
9.91231200 3.56151000
9.93279200 2.66426600
9.95327300 11.65197000
9.97375200 99.99999000
9.99423200 99.99999000
10.01471000 99.75890000
10.03519000 93.46599000
10.05567000 86.27277000
10.07615000 79.97985000
10.09663000 74.58418000
10.11711000 68.29127000
10.13759000 63.79589000
10.15807000 58.40327000
10.17855000 53.90789000
10.19903000 49.41252000
10.21951000 46.71468000
10.23999000 43.11655000
10.26047000 39.52147000
10.28095000 37.72393000
10.30143000 35.02609000
10.32191000 31.43101000
10.34239000 28.73318000
10.36287000 27.83288000
10.38335000 25.13810000
10.40383000 23.33750000
10.42431000 22.44026000
10.44479000 20.64272000
10.46527000 19.74242000
10.48575000 17.94488000
10.50623000 17.04459000
10.52671000 14.34675000
10.54719000 14.34675000
10.56767000 14.34675000
10.58815000 12.54921000
10.60863000 13.44951000
10.62911000 10.75167000
10.64959000 9.85137500
10.67007000 10.75167000
10.69055000 8.95413000
10.71103000 8.05383400
10.73151000 8.05383400
10.75199000 8.05383400
10.77247000 7.15659000
10.79295000 7.15659000
10.81343000 7.15659000
10.83391000 6.25629500
10.85439000 6.25629500
10.87487000 6.25629500
10.89535000 5.35905000
10.91583000 5.35905000
10.93631000 6.25629500
10.95679000 5.35905000
10.97727000 5.35905000
10.99775000 5.35905000
11.01823000 4.46180600
11.03871000 3.56151000
11.05919000 3.56151000
11.07967000 4.46180600
11.10015000 3.56151000
11.12063000 5.35905000
11.14111000 3.56151000
11.16159000 3.56151000
11.18207000 2.66426600
11.20255000 3.56151000
11.22303000 2.66426600
11.24351000 3.56151000
11.26399000 3.56151000
11.28447000 3.56151000
11.30495000 3.56151000
11.32543000 3.56151000
11.34591000 3.56151000
11.36639000 2.66426600
11.38687000 3.56151000
11.40735000 3.56151000
11.42783000 3.56151000
11.44831000 3.56151000
11.46879000 3.56151000
11.48927000 3.56151000
11.50975000 3.56151000
11.53023000 3.56151000
11.55071000 2.66426600
11.57119000 3.56151000
11.59167000 3.56151000
11.61215000 3.56151000
11.63263000 3.56151000
11.65311000 2.66426600
11.67359000 3.56151000
11.69407000 2.66426600
11.71455000 3.56151000
11.73503000 2.66426600
11.75551000 3.56151000
11.77599000 3.56151000
11.79647000 2.66426600
11.81695000 3.56151000
11.83743000 2.66426600
11.85791000 3.56151000
11.87839000 2.66426600
11.89887000 2.66426600
11.91935000 3.56151000
11.93983000 3.56151000
11.96031000 3.56151000
11.98079000 3.56151000
12.00127000 3.56151000
12.02175000 3.56151000
12.04223000 2.66426600
12.06271000 2.66426600
12.08319000 2.66426600
12.10367000 3.56151000
12.12415000 3.56151000
12.14463000 3.56151000
12.16511000 2.66426600
12.18559000 3.56151000
12.20607000 2.66426600
12.22655000 2.66426600
12.24703000 2.66426600
12.26751000 3.56151000
12.28799000 3.56151000
12.30847000 3.56151000
12.32895000 3.56151000
12.34943000 3.56151000
12.36991000 2.66426600
12.39039000 2.66426600
12.41087000 3.56151000
12.43135000 22.44026000
12.45183000 21.53996000
12.47231000 21.53996000
12.49279000 18.84213000
12.51327000 17.94488000
12.53375000 17.04459000
12.55423000 14.34675000
12.57471000 13.44951000
12.59519000 13.44951000
12.61567000 13.44951000
12.63615000 12.54921000
12.65663000 12.54921000
12.67711000 9.85137500
12.69759000 8.95413000
12.71807000 7.15659000
12.73855000 8.95413000
12.75903000 7.15659000
12.77951000 8.05383400
12.79999000 8.05383400
12.82047000 7.15659000
12.84095000 7.15659000
12.86143000 6.25629500
12.88191000 6.25629500
12.90239000 5.35905000
12.92287000 5.35905000
12.94335000 6.25629500
12.96383000 5.35905000
12.98431000 5.35905000
13.00479000 5.35905000
13.02527000 4.46180600
13.04575000 4.46180600
13.06623000 4.46180600
13.08671000 3.56151000
13.10719000 3.56151000
13.12767000 4.46180600
13.14815000 3.56151000
13.16863000 4.46180600
13.18911000 3.56151000
13.20959000 3.56151000
13.23007000 2.66426600
13.25055000 3.56151000
13.27103000 3.56151000
13.29151000 3.56151000
13.31199000 3.56151000
13.33247000 3.56151000
13.35295000 3.56151000
13.37343000 3.56151000
13.39391000 3.56151000
13.41439000 2.66426600
13.43487000 3.56151000
13.45535000 3.56151000
13.47583000 3.56151000
13.49631000 3.56151000
13.51679000 3.56151000
13.53727000 3.56151000
13.55775000 2.66426600
13.57823000 2.66426600
13.59871000 1.76397000
13.61919000 3.56151000
13.63967000 3.56151000
13.66015000 3.56151000
13.68063000 3.56151000
13.70111000 2.66426600
13.72159000 2.66426600
13.74207000 2.66426600
13.76255000 3.56151000
13.78303000 2.66426600
13.80351000 2.66426600
13.82399000 3.56151000
13.84447000 3.56151000
13.86495000 3.56151000
13.88543000 3.56151000
13.90591000 2.66426600
13.92639000 2.66426600
13.94687000 2.66426600
13.96735000 3.56151000
13.98783000 2.66426600
14.00831000 3.56151000
14.02879000 2.66426600
14.04927000 3.56151000
14.06975000 2.66426600
14.09023000 3.56151000
14.11071000 1.76397000
14.13119000 2.66426600
14.15167000 3.56151000
14.17215000 2.66426600
14.19263000 3.56151000
14.21311000 3.56151000
14.23359000 2.66426600
14.25407000 2.66426600
14.27455000 3.56151000
14.29503000 2.66426600
14.31551000 2.66426600
14.33599000 3.56151000
14.35647000 3.56151000
14.37695000 3.56151000
14.39743000 2.66426600
14.41791000 2.66426600
14.43839000 2.66426600
14.45887000 2.66426600
14.47935000 3.56151000
14.49983000 3.56151000
14.52031000 3.56151000
14.54079000 2.66426600
14.56127000 2.66426600
14.58175000 2.66426600
14.60223000 2.66426600
14.62271000 2.66426600
14.64319000 2.66426600
14.66367000 3.56151000
14.68415000 2.66426600
14.70463000 3.56151000
14.72511000 3.56151000
14.74559000 2.66426600
14.76607000 2.66426600
14.78655000 2.66426600
14.80703000 3.56151000
14.82751000 3.56151000
14.84799000 3.56151000
14.86847000 3.56151000
14.88895000 5.35905000
14.90943000 4.46180600
14.92991000 4.46180600
14.95039000 3.56151000
14.97087000 3.56151000
14.99135000 4.46180600
15.01183000 3.56151000
15.03231000 5.35905000
15.05279000 3.56151000
15.07327000 3.56151000
15.09375000 3.56151000
15.11423000 3.56151000
15.13471000 3.56151000
15.15519000 3.56151000
15.17567000 3.56151000
15.19615000 3.56151000
15.21663000 3.56151000
15.23711000 3.56151000
15.25759000 3.56151000
15.27807000 2.66426600
15.29855000 3.56151000
15.31903000 3.56151000
15.33951000 3.56151000
15.35999000 3.56151000
15.38047000 3.56151000
15.40095000 3.56151000
15.42143000 3.56151000
15.44191000 2.66426600
15.46239000 2.66426600
15.48287000 3.56151000
15.50335000 3.56151000
15.52383000 3.56151000
15.54431000 3.56151000
15.56479000 2.66426600
15.58527000 2.66426600
15.60575000 2.66426600
15.62623000 2.66426600
15.64671000 2.66426600
15.66719000 2.66426600
15.68767000 3.56151000
15.70815000 2.66426600
15.72863000 3.56151000
15.74911000 3.56151000
15.76959000 2.66426600
15.79007000 2.66426600
15.81055000 2.66426600
15.83103000 3.56151000
15.85151000 2.66426600
15.87199000 3.56151000
15.89247000 2.66426600
15.91295000 3.56151000
15.93343000 3.56151000
15.95391000 2.66426600
15.97439000 2.66426600
15.99487000 2.66426600
16.01535000 3.56151000
16.03583000 2.66426600
16.05631000 3.56151000
16.07679000 2.66426600
16.09727000 2.66426600
16.11775000 1.76397000
16.13823000 2.66426600
16.15871000 2.66426600
16.17919000 2.66426600
16.19967000 3.56151000
16.22015000 2.66426600
16.24063000 3.56151000
16.26111000 3.56151000
16.28159000 2.66426600
16.30207000 1.76397000
16.32255000 2.66426600
16.34303000 3.56151000
16.36351000 2.66426600
16.38399000 3.56151000
16.40447000 2.66426600
16.42495000 2.66426600
16.44543000 2.66426600
16.46591000 2.66426600
16.48639000 2.66426600
16.50687000 2.66426600
16.52735000 3.56151000
16.54783000 3.56151000
16.56831000 3.56151000
16.58879000 2.66426600
16.60927000 2.66426600
16.62975000 1.76397000
16.65023000 2.66426600
16.67071000 2.66426600
16.69119000 2.66426600
16.71167000 3.56151000
16.73215000 2.66426600
16.75263000 3.56151000
16.77311000 2.66426600
16.79359000 2.66426600
16.81407000 1.76397000
16.83455000 2.66426600
16.85503000 3.56151000
16.87551000 2.66426600
16.89599000 3.56151000
16.91647000 2.66426600
16.93695000 3.56151000
16.95743000 3.56151000
16.97791000 2.66426600
16.99839000 2.66426600
17.01887000 3.56151000
17.03935000 2.66426600
17.05983000 2.66426600
17.08031000 3.56151000
17.10079000 2.66426600
17.12127000 2.66426600
17.14175000 1.76397000
17.16223000 2.66426600
17.18271000 2.66426600
17.20319000 2.66426600
17.22367000 3.56151000
17.24415000 2.66426600
17.26463000 3.56151000
17.28511000 2.66426600
17.30559000 2.66426600
17.32607000 1.76397000
17.34655000 21.53996000
17.36703000 22.44026000
17.38751000 20.64272000
17.40799000 19.74242000
17.42847000 17.94488000
17.44895000 17.04459000
17.46943000 16.14734000
17.48991000 14.34675000
17.51039000 12.54921000
17.53087000 12.54921000
17.55135000 12.54921000
17.57183000 11.65197000
17.59231000 10.75167000
17.61279000 9.85137500
17.63327000 8.95413000
17.65375000 8.05383400
17.67423000 8.05383400
17.69471000 7.15659000
17.71519000 7.15659000
17.73567000 7.15659000
17.75615000 7.15659000
17.77663000 7.15659000
17.79711000 6.25629500
17.81759000 5.35905000
17.83807000 5.35905000
17.85855000 5.35905000
17.87903000 6.25629500
17.89951000 5.35905000
17.91999000 5.35905000
17.94047000 4.46180600
17.96095000 4.46180600
17.98143000 4.46180600
18.00191000 3.56151000
18.02239000 3.56151000
18.04287000 3.56151000
18.06335000 4.46180600
18.08383000 3.56151000
18.10431000 4.46180600
18.12479000 3.56151000
18.14527000 3.56151000
18.16575000 3.56151000
18.18623000 3.56151000
18.20671000 3.56151000
18.22719000 3.56151000
18.24767000 3.56151000
18.26815000 3.56151000
18.28863000 3.56151000
18.30911000 3.56151000
18.32959000 2.66426600
18.35007000 2.66426600
18.37055000 3.56151000
18.39103000 3.56151000
18.41151000 2.66426600
18.43199000 3.56151000
18.45247000 3.56151000
18.47295000 3.56151000
18.49343000 2.66426600
18.51391000 2.66426600
18.53439000 1.76397000
18.55487000 2.66426600
18.57535000 3.56151000
18.59583000 2.66426600
18.61631000 3.56151000
18.63679000 3.56151000
18.65727000 2.66426600
18.67775000 1.76397000
18.69823000 2.66426600
18.71871000 3.56151000
18.73919000 2.66426600
18.75967000 3.56151000
18.78015000 2.66426600
18.80063000 2.66426600
18.82111000 2.66426600
18.84159000 2.66426600
18.86207000 1.76397000
18.88255000 2.66426600
18.90303000 3.56151000
18.92351000 2.66426600
18.94399000 3.56151000
18.96447000 2.66426600
18.98495000 2.66426600
19.00543000 1.76397000
19.02591000 2.66426600
19.04639000 1.76397000
19.06687000 2.66426600
19.08735000 3.56151000
19.10783000 2.66426600
19.12831000 3.56151000
19.14879000 3.56151000
19.16927000 2.66426600
19.18975000 1.76397000
19.21023000 2.66426600
19.23071000 2.66426600
19.25119000 2.66426600
19.27167000 3.56151000
19.29215000 2.66426600
19.31263000 2.66426600
19.33311000 2.66426600
19.35359000 2.66426600
19.37407000 1.76397000
19.39455000 2.66426600
19.41503000 3.56151000
19.43551000 2.66426600
19.45599000 3.56151000
19.47647000 2.66426600
19.49695000 2.66426600
19.51743000 1.76397000
19.53791000 2.66426600
19.55839000 2.66426600
19.57887000 2.66426600
19.59935000 3.56151000
19.61983000 2.66426600
19.64031000 3.56151000
19.66079000 2.66426600
19.68127000 2.66426600
19.70175000 1.76397000
19.72223000 2.66426600
19.74271000 3.56151000
19.76319000 3.56151000
19.78367000 3.56151000
19.80415000 3.56151000
19.82463000 17.04459000
19.84511000 13.44951000
19.86559000 14.34675000
19.88607000 13.44951000
19.90655000 13.44951000
19.92703000 12.54921000
19.94751000 11.65197000
19.96799000 11.65197000
19.98847000 10.75167000
20.00895000 9.85137500
20.02943000 8.05383400
20.04991000 8.05383400
20.07039000 7.15659000
20.09087000 7.15659000
20.11135000 7.15659000
20.13183000 7.15659000
20.15231000 7.15659000
20.17279000 6.25629500
20.19327000 6.25629500
20.21375000 5.35905000
20.23423000 5.35905000
20.25471000 5.35905000
20.27519000 5.35905000
20.29567000 5.35905000
20.31615000 4.46180600
20.33663000 4.46180600
20.35711000 5.35905000
20.37759000 3.56151000
20.39807000 3.56151000
20.41855000 3.56151000
20.43903000 3.56151000
20.45951000 3.56151000
20.47999000 3.56151000
20.50047000 3.56151000
20.52095000 3.56151000
20.54143000 2.66426600
20.56191000 3.56151000
20.58239000 3.56151000
20.60287000 3.56151000
20.62335000 3.56151000
20.64383000 3.56151000
20.66431000 3.56151000
20.68479000 3.56151000
20.70527000 3.56151000
20.72575000 2.66426600
20.74623000 2.66426600
20.76671000 3.56151000
20.78719000 3.56151000
20.80767000 3.56151000
20.82815000 2.66426600
20.84863000 2.66426600
20.86911000 3.56151000
20.88959000 2.66426600
20.91007000 1.76397000
20.93055000 2.66426600
20.95103000 2.66426600
20.97151000 2.66426600
20.99199000 3.56151000
21.01247000 2.66426600
21.03295000 2.66426600
21.05343000 2.66426600
21.07391000 2.66426600
21.09439000 2.66426600
21.11487000 2.66426600
21.13535000 3.56151000
21.15583000 2.66426600
21.17631000 2.66426600
21.19679000 2.66426600
21.21727000 2.66426600
21.23775000 2.66426600
21.25823000 2.66426600
21.27871000 2.66426600
21.29919000 2.66426600
21.31967000 3.56151000
21.34015000 2.66426600
21.36063000 2.66426600
21.38111000 1.76397000
21.40159000 2.66426600
21.42207000 2.66426600
21.44255000 2.66426600
21.46303000 2.66426600
21.48351000 2.66426600
21.50399000 3.56151000
21.52447000 2.66426600
21.54495000 2.66426600
21.56543000 1.76397000
21.58591000 2.66426600
21.60639000 3.56151000
21.62687000 2.66426600
21.64735000 3.56151000
21.66783000 2.66426600
21.68831000 2.66426600
21.70879000 2.66426600
21.72927000 2.66426600
21.74975000 1.76397000
21.77023000 2.66426600
21.79071000 2.66426600
21.81119000 2.66426600
21.83167000 3.56151000
21.85215000 2.66426600
21.87263000 2.66426600
21.89311000 1.76397000
21.91359000 2.66426600
21.93407000 2.66426600
21.95455000 2.66426600
21.97503000 3.56151000
21.99551000 2.66426600
22.01599000 2.66426600
22.03647000 2.66426600
22.05695000 2.66426600
22.07743000 1.76397000
22.09791000 2.66426600
22.11839000 3.56151000
22.13887000 2.66426600
22.15935000 3.56151000
22.17983000 2.66426600
22.20031000 2.66426600
22.22079000 2.66426600
22.24127000 2.66426600
22.26175000 2.66426600
22.28223000 99.99999000
22.30271000 99.99999000
22.32319000 93.46599000
22.34367000 88.07031000
22.36415000 80.87710000
22.38463000 74.58418000
22.40511000 68.29127000
22.42559000 63.79589000
22.44607000 58.40327000
22.46655000 53.90789000
22.48703000 50.30976000
22.50751000 46.71468000
22.52799000 43.11655000
22.54847000 39.52147000
22.56895000 35.92639000
22.58943000 33.22855000
22.60991000 32.32826000
22.63039000 29.63347000
22.65087000 26.93563000
22.67135000 26.03534000
22.69183000 23.33750000
22.71231000 21.53996000
22.73279000 19.74242000
22.75327000 17.94488000
22.77375000 17.04459000
22.79423000 17.04459000
22.81471000 15.24705000
22.83519000 14.34675000
22.85567000 14.34675000
22.87615000 12.54921000
22.89663000 11.65197000
22.91711000 9.85137500
22.93759000 9.85137500
22.95807000 8.95413000
22.97855000 8.95413000
22.99903000 8.95413000
23.01951000 8.05383400
23.03999000 7.15659000
23.06047000 7.15659000
23.08095000 7.15659000
23.10143000 6.25629500
23.12191000 6.25629500
23.14239000 6.25629500
23.16287000 6.25629500
23.18335000 6.25629500
23.20383000 5.35905000
23.22431000 5.35905000
23.24479000 3.56151000
23.26527000 4.46180600
23.28575000 3.56151000
23.30623000 4.46180600
23.32671000 4.46180600
23.34719000 3.56151000
23.36767000 4.46180600
23.38815000 3.56151000
23.40863000 3.56151000
23.42911000 2.66426600
23.44959000 3.56151000
23.47007000 3.56151000
23.49055000 3.56151000
23.51103000 3.56151000
23.53151000 3.56151000
23.55199000 3.56151000
23.57247000 3.56151000
23.59295000 2.66426600
23.61343000 2.66426600
23.63391000 3.56151000
23.65439000 3.56151000
23.67487000 2.66426600
23.69535000 3.56151000
23.71583000 3.56151000
23.73631000 2.66426600
23.75679000 1.76397000
23.77727000 3.56151000
23.79775000 2.66426600
23.81823000 3.56151000
23.83871000 3.56151000
23.85919000 2.66426600
23.87967000 3.56151000
23.90015000 2.66426600
23.92063000 2.66426600
23.94111000 2.66426600
23.96159000 2.66426600
23.98207000 2.66426600
24.00255000 2.66426600
24.02303000 3.56151000
24.04351000 2.66426600
24.06399000 3.56151000
24.08447000 2.66426600
24.10495000 2.66426600
24.12543000 2.66426600
24.14591000 2.66426600
24.16639000 3.56151000
24.18687000 2.66426600
24.20735000 3.56151000
24.22783000 2.66426600
24.24831000 2.66426600
24.26879000 1.76397000
24.28927000 2.66426600
24.30975000 2.66426600
24.33023000 3.56151000
24.35071000 3.56151000
24.37119000 2.66426600
24.39167000 3.56151000
24.41215000 2.66426600
24.43263000 2.66426600
24.45311000 1.76397000
24.47359000 2.66426600
24.49407000 2.66426600
24.51455000 2.66426600
24.53503000 3.56151000
24.55551000 2.66426600
24.57599000 3.56151000
24.59647000 2.66426600
24.61695000 2.66426600
24.63743000 2.66426600
24.65791000 2.66426600
24.67839000 3.56151000
24.69887000 3.56151000
24.71935000 3.56151000
24.73983000 12.54921000
24.76031000 14.34675000
24.78079000 11.65197000
24.80127000 12.54921000
24.82175000 10.75167000
24.84223000 10.75167000
24.86271000 10.75167000
24.88319000 8.95413000
24.90367000 9.85137500
24.92415000 8.05383400
24.94463000 8.05383400
24.96511000 7.15659000
24.98559000 7.15659000
25.00607000 7.15659000
25.02655000 7.15659000
25.04703000 7.15659000
25.06751000 6.25629500
25.08799000 6.25629500
25.10847000 5.35905000
25.12895000 5.35905000
25.14943000 3.56151000
25.16991000 5.35905000
25.19039000 5.35905000
25.21087000 4.46180600
25.23135000 5.35905000
25.25183000 4.46180600
25.27231000 4.46180600
25.29279000 2.66426600
25.31327000 3.56151000
25.33375000 3.56151000
25.35423000 3.56151000
25.37471000 4.46180600
25.39519000 3.56151000
25.41567000 3.56151000
25.43615000 3.56151000
25.45663000 3.56151000
25.47711000 2.66426600
25.49759000 3.56151000
25.51807000 3.56151000
25.53855000 3.56151000
25.55903000 3.56151000
25.57951000 3.56151000
25.59999000 3.56151000
25.62047000 3.56151000
25.64095000 2.66426600
25.66143000 2.66426600
25.68191000 2.66426600
25.70239000 3.56151000
25.72287000 3.56151000
25.74335000 3.56151000
25.76383000 3.56151000
25.78431000 3.56151000
25.80479000 2.66426600
25.82527000 2.66426600
25.84575000 2.66426600
25.86623000 3.56151000
25.88671000 3.56151000
25.90719000 2.66426600
25.92767000 3.56151000
25.94815000 2.66426600
25.96863000 2.66426600
25.98911000 1.76397000
26.00959000 2.66426600
26.03007000 3.56151000
26.05055000 2.66426600
26.07103000 3.56151000
26.09151000 2.66426600
26.11199000 2.66426600
26.13247000 1.76397000
26.15295000 2.66426600
26.17343000 1.76397000
26.19391000 2.66426600
26.21439000 3.56151000
26.23487000 2.66426600
26.25535000 3.56151000
26.27583000 2.66426600
26.29631000 2.66426600
26.31679000 2.66426600
26.33727000 2.66426600
26.35775000 2.66426600
26.37823000 2.66426600
26.39871000 3.56151000
26.41919000 2.66426600
26.43967000 3.56151000
26.46015000 2.66426600
26.48063000 2.66426600
26.50111000 1.76397000
26.52159000 3.56151000
26.54207000 3.56151000
26.56255000 2.66426600
26.58303000 3.56151000
26.60351000 2.66426600
26.62399000 2.66426600
26.64447000 2.66426600
26.66495000 2.66426600
26.68543000 2.66426600
26.70591000 2.66426600
26.72639000 3.56151000
26.74687000 2.66426600
26.76735000 3.56151000
26.78783000 3.56151000
26.80831000 2.66426600
26.82879000 2.66426600
26.84927000 2.66426600
26.86975000 2.66426600
26.89023000 2.66426600
26.91071000 3.56151000
26.93119000 2.66426600
26.95167000 2.66426600
26.97215000 2.66426600
26.99263000 2.66426600
27.01311000 2.66426600
27.03359000 2.66426600
27.05407000 3.56151000
27.07455000 3.56151000
27.09503000 3.56151000
27.11551000 2.66426600
27.13599000 3.56151000
27.15647000 2.66426600
27.17695000 3.56151000
27.19743000 2.66426600
27.21791000 21.53996000
27.23839000 21.53996000
27.25887000 19.74242000
27.27935000 19.74242000
27.29983000 17.94488000
27.32031000 16.14734000
27.34079000 14.34675000
27.36127000 14.34675000
27.38175000 13.44951000
27.40223000 12.54921000
27.42271000 12.54921000
27.44319000 10.75167000
27.46367000 10.75167000
27.48415000 9.85137500
27.50463000 8.95413000
27.52511000 7.15659000
27.54559000 8.05383400
27.56607000 8.05383400
27.58655000 7.15659000
27.60703000 7.15659000
27.62751000 6.25629500
27.64799000 6.25629500
27.66847000 5.35905000
27.68895000 6.25629500
27.70943000 4.46180600
27.72991000 5.35905000
27.75039000 6.25629500
27.77087000 5.35905000
27.79135000 5.35905000
27.81183000 4.46180600
27.83231000 3.56151000
27.85279000 3.56151000
27.87327000 3.56151000
27.89375000 4.46180600
27.91423000 4.46180600
27.93471000 4.46180600
27.95519000 3.56151000
27.97567000 3.56151000
27.99615000 3.56151000
28.01663000 3.56151000
28.03711000 2.66426600
28.05759000 3.56151000
28.07807000 3.56151000
28.09855000 3.56151000
28.11903000 3.56151000
28.13951000 3.56151000
28.15999000 3.56151000
28.18047000 2.66426600
28.20095000 3.56151000
28.22143000 2.66426600
28.24191000 3.56151000
28.26239000 3.56151000
28.28287000 3.56151000
28.30335000 3.56151000
28.32383000 3.56151000
28.34431000 3.56151000
28.36479000 2.66426600
28.38527000 2.66426600
28.40575000 3.56151000
28.42623000 3.56151000
28.44671000 3.56151000
28.46719000 2.66426600
28.48767000 3.56151000
28.50815000 3.56151000
28.52863000 2.66426600
28.54911000 2.66426600
28.56959000 2.66426600
28.59007000 3.56151000
28.61055000 2.66426600
28.63103000 3.56151000
28.65151000 2.66426600
28.67199000 2.66426600
28.69247000 1.76397000
28.71295000 2.66426600
28.73343000 2.66426600
28.75391000 2.66426600
28.77439000 3.56151000
28.79487000 2.66426600
28.81535000 3.56151000
28.83583000 2.66426600
28.85631000 2.66426600
28.87679000 2.66426600
28.89727000 3.56151000
28.91775000 3.56151000
28.93823000 2.66426600
28.95871000 3.56151000
28.97919000 2.66426600
28.99967000 3.56151000
29.02015000 1.76397000
29.04063000 2.66426600
29.06111000 1.76397000
29.08159000 2.66426600
29.10207000 3.56151000
29.12255000 2.66426600
29.14303000 3.56151000
29.16351000 3.56151000
29.18399000 2.66426600
29.20447000 2.66426600
29.22495000 2.66426600
29.24543000 2.66426600
29.26591000 2.66426600
29.28639000 3.56151000
29.30687000 2.66426600
29.32735000 3.56151000
29.34783000 3.56151000
29.36831000 2.66426600
29.38879000 2.66426600
29.40927000 3.56151000
29.42975000 3.56151000
29.45023000 2.66426600
29.47071000 3.56151000
29.49119000 2.66426600
29.51167000 3.56151000
29.53215000 2.66426600
29.55263000 2.66426600
29.57311000 2.66426600
29.59359000 3.56151000
29.61407000 3.56151000
29.63455000 3.56151000
29.65503000 3.56151000
29.67551000 6.25629500
29.69599000 6.25629500
29.71647000 5.35905000
29.73695000 6.25629500
29.75743000 5.35905000
29.77791000 5.35905000
29.79839000 6.25629500
29.81887000 5.35905000
29.83935000 5.35905000
29.85983000 4.46180600
29.88031000 4.46180600
29.90079000 3.56151000
29.92127000 3.56151000
29.94175000 5.35905000
29.96223000 4.46180600
29.98271000 4.46180600
30.00319000 3.56151000
30.02367000 3.56151000
30.04415000 2.66426600
30.06463000 3.56151000
30.08511000 3.56151000
30.10559000 3.56151000
30.12607000 4.46180600
30.14655000 3.56151000
30.16703000 3.56151000
30.18751000 3.56151000
30.20799000 3.56151000
30.22847000 2.66426600
30.24895000 3.56151000
30.26943000 3.56151000
30.28991000 3.56151000
30.31039000 3.56151000
30.33087000 3.56151000
30.35135000 3.56151000
30.37183000 3.56151000
30.39231000 3.56151000
30.41279000 2.66426600
30.43327000 2.66426600
30.45375000 3.56151000
30.47423000 3.56151000
30.49471000 3.56151000
30.51519000 3.56151000
30.53567000 3.56151000
30.55615000 2.66426600
30.57663000 3.56151000
30.59711000 2.66426600
30.61759000 2.66426600
30.63807000 3.56151000
30.65855000 3.56151000
30.67903000 3.56151000
30.69951000 3.56151000
30.71999000 2.66426600
30.74047000 2.66426600
30.76095000 3.56151000
30.78143000 3.56151000
30.80191000 3.56151000
30.82239000 3.56151000
30.84287000 2.66426600
30.86335000 3.56151000
30.88383000 3.56151000
30.90431000 2.66426600
30.92479000 2.66426600
30.94527000 3.56151000
30.96575000 3.56151000
30.98623000 3.56151000
31.00671000 3.56151000
31.02719000 3.56151000
31.04767000 3.56151000
31.06815000 1.76397000
31.08863000 3.56151000
31.10911000 2.66426600
31.12959000 3.56151000
31.15007000 3.56151000
31.17055000 3.56151000
31.19103000 3.56151000
31.21151000 3.56151000
31.23199000 2.66426600
31.25247000 1.76397000
31.27295000 3.56151000
31.29343000 3.56151000
31.31391000 2.66426600
31.33439000 3.56151000
31.35487000 3.56151000
31.37535000 3.56151000
31.39583000 3.56151000
31.41631000 2.66426600
31.43679000 2.66426600
31.45727000 3.56151000
31.47775000 3.56151000
31.49823000 2.66426600
31.51871000 3.56151000
31.53919000 3.56151000
31.55967000 2.66426600
31.58015000 1.76397000
31.60063000 3.56151000
31.62111000 2.66426600
31.64159000 2.66426600
31.66207000 3.56151000
31.68255000 3.56151000
31.70303000 3.56151000
31.72351000 3.56151000
31.74399000 3.56151000
31.76447000 2.66426600
31.78495000 3.56151000
31.80543000 3.56151000
31.82591000 2.66426600
31.84639000 3.56151000
31.86687000 2.66426600
31.88735000 3.56151000
31.90783000 2.66426600
31.92831000 3.56151000
31.94879000 2.66426600
31.96927000 3.56151000
31.98975000 3.56151000
32.01023000 3.56151000
32.03071000 3.56151000
32.05119000 2.66426600
32.07167000 3.56151000
32.09215000 2.66426600
32.11263000 2.66426600
32.13311000 2.66426600
32.15359000 17.94488000
32.17407000 17.94488000
32.19455000 15.24705000
32.21503000 16.14734000
32.23551000 14.34675000
32.25599000 13.44951000
32.27647000 10.75167000
32.29695000 10.75167000
32.31743000 10.75167000
32.33791000 9.85137500
32.35839000 9.85137500
32.37887000 8.95413000
32.39935000 8.95413000
32.41983000 7.15659000
32.44031000 7.15659000
32.46079000 6.25629500
32.48127000 7.15659000
32.50175000 7.15659000
32.52223000 6.25629500
32.54271000 7.15659000
32.56319000 6.25629500
32.58367000 5.35905000
32.60415000 3.56151000
32.62463000 5.35905000
32.64511000 4.46180600
32.66559000 5.35905000
32.68607000 5.35905000
32.70655000 4.46180600
32.72703000 5.35905000
32.74751000 4.46180600
32.76799000 3.56151000
32.78847000 3.56151000
32.80895000 3.56151000
32.82943000 4.46180600
32.84991000 3.56151000
32.87039000 4.46180600
32.89087000 3.56151000
32.91135000 3.56151000
32.93183000 4.46180600
32.95231000 3.56151000
32.97279000 2.66426600
32.99327000 3.56151000
33.01375000 3.56151000
33.03423000 3.56151000
33.05471000 3.56151000
33.07519000 3.56151000
33.09567000 3.56151000
33.11615000 2.66426600
33.13663000 2.66426600
33.15711000 3.56151000
33.17759000 3.56151000
33.19807000 3.56151000
33.21855000 3.56151000
33.23903000 3.56151000
33.25951000 3.56151000
33.27999000 2.66426600
33.30047000 2.66426600
33.32095000 2.66426600
33.34143000 3.56151000
33.36191000 3.56151000
33.38239000 3.56151000
33.40287000 2.66426600
33.42335000 3.56151000
33.44383000 2.66426600
33.46431000 2.66426600
33.48479000 2.66426600
33.50527000 2.66426600
33.52575000 3.56151000
33.54623000 3.56151000
33.56671000 3.56151000
33.58719000 2.66426600
33.60767000 3.56151000
33.62815000 2.66426600
33.64863000 2.66426600
33.66911000 3.56151000
33.68959000 3.56151000
33.71008000 3.56151000
33.73055000 3.56151000
33.75103000 3.56151000
33.77151000 3.56151000
33.79199000 2.66426600
33.81247000 2.66426600
33.83295000 2.66426600
33.85343000 3.56151000
33.87391000 3.56151000
33.89439000 3.56151000
33.91487000 3.56151000
33.93535000 2.66426600
33.95583000 1.76397000
33.97631000 2.66426600
33.99679000 2.66426600
34.01727000 3.56151000
34.03775000 3.56151000
34.05823000 3.56151000
34.07871000 3.56151000
34.09919000 3.56151000
34.11967000 2.66426600
34.14015000 2.66426600
34.16063000 2.66426600
34.18111000 3.56151000
34.20159000 3.56151000
34.22207000 3.56151000
34.24255000 3.56151000
34.26303000 3.56151000
34.28351000 3.56151000
34.30399000 2.66426600
34.32447000 1.76397000
34.34495000 2.66426600
34.36543000 3.56151000
34.38591000 3.56151000
34.40639000 3.56151000
34.42687000 3.56151000
34.44735000 2.66426600
34.46783000 1.76397000
34.48831000 2.66426600
34.50879000 2.66426600
34.52927000 3.56151000
34.54975000 3.56151000
34.57023000 2.66426600
34.59071000 3.56151000
34.61119000 7.15659000
34.63167000 7.15659000
34.65215000 6.25629500
34.67263000 6.25629500
34.69311000 7.15659000
34.71359000 6.25629500
34.73407000 6.25629500
34.75455000 5.35905000
34.77503000 5.35905000
34.79551000 5.35905000
34.81599000 5.35905000
34.83647000 3.56151000
34.85695000 4.46180600
34.87743000 5.35905000
34.89791000 4.46180600
34.91839000 5.35905000
34.93887000 4.46180600
34.95935000 3.56151000
34.97983000 3.56151000
35.00031000 3.56151000
35.02079000 3.56151000
35.04127000 3.56151000
35.06175000 4.46180600
35.08223000 3.56151000
35.10271000 4.46180600
35.12319000 3.56151000
35.14367000 3.56151000
35.16415000 2.66426600
35.18463000 3.56151000
35.20511000 3.56151000
35.22559000 3.56151000
35.24607000 3.56151000
35.26655000 2.66426600
35.28703000 3.56151000
35.30751000 3.56151000
35.32799000 3.56151000
35.34847000 2.66426600
35.36895000 3.56151000
35.38943000 3.56151000
35.40991000 3.56151000
35.43039000 3.56151000
35.45087000 2.66426600
35.47136000 2.66426600
35.49183000 2.66426600
35.51231000 2.66426600
35.53279000 2.66426600
35.55327000 3.56151000
35.57375000 3.56151000
35.59423000 3.56151000
35.61471000 3.56151000
35.63519000 2.66426600
35.65567000 2.66426600
35.67615000 2.66426600
35.69663000 3.56151000
35.71711000 3.56151000
35.73759000 2.66426600
35.75807000 3.56151000
35.77855000 2.66426600
35.79903000 2.66426600
35.81951000 5.35905000
35.83999000 2.66426600
35.86047000 2.66426600
35.88095000 2.66426600
35.90143000 3.56151000
35.92191000 2.66426600
35.94239000 3.56151000
35.96287000 2.66426600
35.98335000 2.66426600
36.00383000 2.66426600
36.02431000 2.66426600
36.04479000 2.66426600
36.06527000 2.66426600
36.08575000 3.56151000
36.10623000 3.56151000
36.12671000 3.56151000
36.14719000 2.66426600
36.16768000 2.66426600
36.18815000 1.76397000
36.20863000 2.66426600
36.22911000 3.56151000
36.24959000 2.66426600
36.27007000 3.56151000
36.29055000 2.66426600
36.31103000 2.66426600
36.33151000 1.76397000
36.35199000 2.66426600
36.37247000 2.66426600
36.39295000 2.66426600
36.41343000 2.66426600
36.43391000 2.66426600
36.45439000 3.56151000
36.47487000 2.66426600
36.49535000 2.66426600
36.51583000 2.66426600
36.53631000 2.66426600
36.55679000 2.66426600
36.57727000 2.66426600
36.59775000 3.56151000
36.61823000 2.66426600
36.63871000 3.56151000
36.65919000 3.56151000
36.67967000 2.66426600
36.70015000 1.76397000
36.72063000 2.66426600
36.74111000 3.56151000
36.76159000 2.66426600
36.78207000 3.56151000
36.80255000 2.66426600
36.82303000 2.66426600
36.84351000 1.76397000
36.86399000 2.66426600
36.88447000 1.76397000
36.90495000 3.56151000
36.92543000 3.56151000
36.94591000 3.56151000
36.96639000 3.56151000
36.98687000 3.56151000
37.00735000 2.66426600
37.02783000 2.66426600
37.04831000 3.56151000
37.06879000 8.05383400
37.08927000 8.05383400
37.10975000 8.05383400
37.13023000 7.15659000
37.15071000 7.15659000
37.17119000 6.25629500
37.19167000 6.25629500
37.21215000 5.35905000
37.23264000 5.35905000
37.25311000 6.25629500
37.27359000 5.35905000
37.29407000 5.35905000
37.31455000 5.35905000
37.33503000 4.46180600
37.35551000 3.56151000
37.37599000 4.46180600
37.39647000 3.56151000
37.41695000 4.46180600
37.43743000 4.46180600
37.45791000 3.56151000
37.47839000 4.46180600
37.49887000 3.56151000
37.51935000 3.56151000
37.53983000 3.56151000
37.56031000 3.56151000
37.58079000 3.56151000
37.60127000 3.56151000
37.62175000 3.56151000
37.64223000 3.56151000
37.66271000 3.56151000
37.68319000 3.56151000
37.70367000 3.56151000
37.72415000 2.66426600
37.74463000 3.56151000
37.76511000 3.56151000
37.78559000 3.56151000
37.80607000 3.56151000
37.82655000 3.56151000
37.84703000 3.56151000
37.86751000 2.66426600
37.88799000 3.56151000
37.90847000 2.66426600
37.92896000 2.66426600
37.94943000 3.56151000
37.96991000 2.66426600
37.99039000 3.56151000
38.01087000 2.66426600
38.03135000 2.66426600
38.05183000 2.66426600
38.07231000 2.66426600
38.09279000 3.56151000
38.11327000 3.56151000
38.13375000 3.56151000
38.15423000 2.66426600
38.17471000 2.66426600
38.19519000 2.66426600
38.21567000 2.66426600
38.23615000 1.76397000
38.25663000 2.66426600
38.27711000 3.56151000
38.29759000 2.66426600
38.31807000 3.56151000
38.33855000 2.66426600
38.35903000 2.66426600
38.37951000 1.76397000
38.39999000 2.66426600
38.42047000 1.76397000
38.44095000 2.66426600
38.46143000 3.56151000
38.48191000 2.66426600
38.50239000 3.56151000
38.52287000 2.66426600
38.54335000 2.66426600
38.56383000 1.76397000
38.58431000 2.66426600
38.60479000 3.56151000
38.62527000 3.56151000
38.64575000 3.56151000
38.66623000 2.66426600
38.68671000 2.66426600
38.70719000 2.66426600
38.72767000 2.66426600
38.74815000 2.66426600
38.76863000 2.66426600
38.78911000 3.56151000
38.80959000 2.66426600
38.83007000 3.56151000
38.85055000 2.66426600
38.87103000 2.66426600
38.89151000 2.66426600
38.91199000 2.66426600
38.93247000 2.66426600
38.95295000 2.66426600
38.97343000 3.56151000
38.99392000 2.66426600
39.01439000 2.66426600
39.03487000 3.56151000
39.05535000 2.66426600
39.07583000 1.76397000
39.09631000 3.56151000
39.11679000 3.56151000
39.13727000 3.56151000
39.15775000 3.56151000
39.17823000 2.66426600
39.19871000 2.66426600
39.21919000 1.76397000
39.23967000 2.66426600
39.26015000 2.66426600
39.28063000 2.66426600
39.30111000 3.56151000
39.32159000 2.66426600
39.34207000 3.56151000
39.36255000 2.66426600
39.38303000 2.66426600
39.40351000 1.76397000
39.42399000 2.66426600
39.44447000 2.66426600
39.46495000 2.66426600
39.48543000 3.56151000
39.50591000 6.25629500
39.52639000 6.25629500
39.54688000 6.25629500
39.56735000 5.35905000
39.58783000 4.46180600
39.60831000 5.35905000
39.62879000 5.35905000
39.64927000 5.35905000
39.66975000 5.35905000
39.69024000 4.46180600
39.71071000 4.46180600
39.73119000 3.56151000
39.75167000 3.56151000
39.77215000 3.56151000
39.79263000 3.56151000
39.81311000 3.56151000
39.83359000 3.56151000
39.85407000 4.46180600
39.87455000 3.56151000
39.89503000 3.56151000
39.91551000 2.66426600
39.93599000 3.56151000
39.95647000 3.56151000
39.97695000 3.56151000
39.99743000 3.56151000
40.01791000 3.56151000
40.03839000 3.56151000
40.05887000 3.56151000
40.07935000 3.56151000
40.09983000 2.66426600
40.12031000 3.56151000
40.14079000 3.56151000
40.16127000 2.66426600
40.18175000 3.56151000
40.20223000 3.56151000
40.22271000 3.56151000
40.24319000 1.76397000
40.26367000 2.66426600
40.28415000 2.66426600
40.30463000 2.66426600
40.32511000 3.56151000
40.34559000 2.66426600
40.36607000 3.56151000
40.38655000 2.66426600
40.40703000 2.66426600
40.42751000 1.76397000
40.44799000 2.66426600
40.46847000 3.56151000
40.48895000 3.56151000
40.50943000 3.56151000
40.52991000 3.56151000
40.55039000 3.56151000
40.57087000 2.66426600
40.59135000 2.66426600
40.61183000 1.76397000
40.63231000 2.66426600
40.65279000 2.66426600
40.67327000 2.66426600
40.69375000 3.56151000
40.71423000 2.66426600
40.73471000 2.66426600
40.75519000 1.76397000
40.77567000 2.66426600
40.79615000 1.76397000
40.81663000 2.66426600
40.83711000 3.56151000
40.85759000 2.66426600
40.87807000 2.66426600
40.89855000 3.56151000
40.91903000 2.66426600
40.93951000 1.76397000
40.95999000 2.66426600
40.98047000 2.66426600
41.00095000 2.66426600
41.02143000 3.56151000
41.04191000 2.66426600
41.06239000 3.56151000
41.08287000 2.66426600
41.10335000 2.66426600
41.12383000 1.76397000
41.14431000 2.66426600
41.16479000 2.66426600
41.18527000 2.66426600
41.20575000 3.56151000
41.22623000 2.66426600
41.24671000 2.66426600
41.26719000 1.76397000
41.28767000 2.66426600
41.30816000 1.76397000
41.32863000 2.66426600
41.34911000 3.56151000
41.36959000 2.66426600
41.39007000 3.56151000
41.41055000 2.66426600
41.43103000 2.66426600
41.45151000 1.76397000
41.47199000 2.66426600
41.49247000 2.66426600
41.51295000 2.66426600
41.53343000 3.56151000
41.55391000 2.66426600
41.57439000 2.66426600
41.59487000 2.66426600
41.61535000 2.66426600
41.63583000 1.76397000
41.65631000 2.66426600
41.67679000 2.66426600
41.69727000 2.66426600
41.71775000 2.66426600
41.73823000 2.66426600
41.75871000 2.66426600
41.77919000 1.76397000
41.79967000 2.66426600
41.82015000 1.76397000
41.84063000 2.66426600
41.86111000 3.56151000
41.88159000 2.66426600
41.90207000 3.56151000
41.92255000 2.66426600
41.94303000 2.66426600
41.96351000 1.76397000
41.98399000 50.30976000
42.00447000 66.49373000
42.02495000 61.09805000
42.04543000 57.50298000
42.06591000 53.00760000
42.08639000 49.41252000
42.10687000 45.81438000
42.12735000 42.21930000
42.14783000 38.62117000
42.16831000 35.92639000
42.18879000 34.12885000
42.20927000 31.43101000
42.22975000 28.73318000
42.25023000 26.93563000
42.27071000 24.23780000
42.29119000 21.53996000
42.31167000 21.53996000
42.33215000 19.74242000
42.35263000 17.94488000
42.37311000 17.94488000
42.39359000 16.14734000
42.41407000 15.24705000
42.43455000 14.34675000
42.45503000 13.44951000
42.47551000 10.75167000
42.49599000 11.65197000
42.51647000 10.75167000
42.53695000 9.85137500
42.55743000 9.85137500
42.57791000 8.95413000
42.59839000 8.05383400
42.61887000 7.15659000
42.63935000 7.15659000
42.65983000 6.25629500
42.68031000 7.15659000
42.70079000 7.15659000
42.72127000 6.25629500
42.74175000 6.25629500
42.76223000 5.35905000
42.78271000 5.35905000
42.80319000 4.46180600
42.82367000 5.35905000
42.84415000 5.35905000
42.86463000 4.46180600
42.88511000 5.35905000
42.90559000 3.56151000
42.92607000 4.46180600
42.94655000 3.56151000
42.96703000 3.56151000
42.98751000 3.56151000
43.00799000 3.56151000
43.02847000 3.56151000
43.04895000 3.56151000
43.06944000 3.56151000
43.08991000 3.56151000
43.11039000 3.56151000
43.13087000 2.66426600
43.15135000 3.56151000
43.17183000 2.66426600
43.19231000 3.56151000
43.21279000 3.56151000
43.23327000 3.56151000
43.25375000 3.56151000
43.27423000 3.56151000
43.29471000 2.66426600
43.31519000 2.66426600
43.33567000 3.56151000
43.35615000 3.56151000
43.37663000 3.56151000
43.39711000 3.56151000
43.41759000 2.66426600
43.43807000 3.56151000
43.45855000 2.66426600
43.47903000 2.66426600
43.49951000 1.76397000
43.51999000 2.66426600
43.54047000 3.56151000
43.56095000 2.66426600
43.58143000 3.56151000
43.60191000 2.66426600
43.62239000 2.66426600
43.64287000 1.76397000
43.66335000 2.66426600
43.68383000 1.76397000
43.70431000 2.66426600
43.72479000 2.66426600
43.74527000 2.66426600
43.76575000 3.56151000
43.78623000 2.66426600
43.80671000 2.66426600
43.82719000 1.76397000
43.84767000 2.66426600
43.86815000 3.56151000
43.88863000 2.66426600
43.90911000 3.56151000
43.92959000 2.66426600
43.95007000 3.56151000
43.97055000 2.66426600
43.99103000 2.66426600
44.01151000 1.76397000
44.03199000 3.56151000
44.05247000 2.66426600
44.07295000 2.66426600
44.09343000 3.56151000
44.11391000 2.66426600
44.13439000 2.66426600
44.15487000 1.76397000
44.17535000 2.66426600
44.19583000 2.66426600
44.21631000 2.66426600
44.23679000 3.56151000
44.25727000 2.66426600
44.27775000 3.56151000
44.29823000 2.66426600
44.31871000 2.66426600
44.33919000 2.66426600
44.35967000 2.66426600
44.38015000 3.56151000
44.40063000 3.56151000
44.42111000 3.56151000
44.44159000 3.56151000
44.46207000 16.14734000
44.48255000 14.34675000
44.50303000 13.44951000
44.52351000 12.54921000
44.54399000 12.54921000
44.56447000 11.65197000
44.58495000 10.75167000
44.60543000 10.75167000
44.62591000 8.95413000
44.64639000 8.95413000
44.66687000 7.15659000
44.68735000 7.15659000
44.70783000 6.25629500
44.72831000 7.15659000
44.74879000 7.15659000
44.76927000 7.15659000
44.78975000 6.25629500
44.81023000 6.25629500
44.83072000 5.35905000
44.85119000 4.46180600
44.87167000 5.35905000
44.89215000 5.35905000
44.91263000 5.35905000
44.93311000 5.35905000
44.95359000 4.46180600
44.97407000 4.46180600
44.99455000 5.35905000
45.01503000 3.56151000
45.03551000 3.56151000
45.05599000 3.56151000
45.07647000 3.56151000
45.09695000 3.56151000
45.11743000 4.46180600
45.13791000 3.56151000
45.15839000 3.56151000
45.17887000 2.66426600
45.19935000 3.56151000
45.21983000 3.56151000
45.24031000 3.56151000
45.26079000 3.56151000
45.28127000 3.56151000
45.30175000 3.56151000
45.32223000 3.56151000
45.34271000 3.56151000
45.36319000 2.66426600
45.38367000 3.56151000
45.40415000 3.56151000
45.42463000 3.56151000
45.44511000 3.56151000
45.46559000 3.56151000
45.48607000 3.56151000
45.50655000 3.56151000
45.52703000 2.66426600
45.54751000 2.66426600
45.56799000 2.66426600
45.58847000 3.56151000
45.60895000 2.66426600
45.62943000 3.56151000
45.64991000 2.66426600
45.67039000 2.66426600
45.69087000 2.66426600
45.71135000 2.66426600
45.73183000 2.66426600
45.75231000 2.66426600
45.77279000 3.56151000
45.79327000 2.66426600
45.81375000 3.56151000
45.83423000 2.66426600
45.85471000 2.66426600
45.87519000 1.76397000
45.89567000 2.66426600
45.91615000 3.56151000
45.93663000 3.56151000
45.95711000 3.56151000
45.97759000 2.66426600
45.99807000 2.66426600
46.01855000 2.66426600
46.03903000 2.66426600
46.05951000 1.76397000
46.07999000 2.66426600
46.10047000 3.56151000
46.12095000 2.66426600
46.14143000 3.56151000
46.16191000 2.66426600
46.18239000 2.66426600
46.20287000 2.66426600
46.22335000 2.66426600
46.24383000 3.56151000
46.26431000 2.66426600
46.28479000 3.56151000
46.30527000 2.66426600
46.32575000 3.56151000
46.34623000 2.66426600
46.36671000 2.66426600
46.38719000 2.66426600
46.40767000 3.56151000
46.42815000 3.56151000
46.44863000 2.66426600
46.46911000 3.56151000
46.48959000 2.66426600
46.51007000 2.66426600
46.53055000 2.66426600
46.55103000 3.56151000
46.57151000 2.66426600
46.59200000 3.56151000
46.61247000 3.56151000
46.63295000 2.66426600
46.65343000 3.56151000
46.67391000 3.56151000
46.69439000 2.66426600
46.71487000 2.66426600
46.73535000 3.56151000
46.75583000 3.56151000
46.77631000 2.66426600
46.79679000 3.56151000
46.81727000 3.56151000
46.83775000 3.56151000
46.85823000 3.56151000
46.87871000 2.66426600
46.89919000 3.56151000
46.91967000 3.56151000
46.94015000 3.56151000
46.96063000 3.56151000
46.98111000 4.46180600
47.00159000 3.56151000
47.02207000 3.56151000
47.04255000 2.66426600
47.06303000 3.56151000
47.08351000 2.66426600
47.10399000 3.56151000
47.12447000 4.46180600
47.14495000 3.56151000
47.16543000 3.56151000
47.18591000 3.56151000
47.20639000 3.56151000
47.22687000 2.66426600
47.24735000 3.56151000
47.26783000 3.56151000
47.28831000 2.66426600
47.30879000 3.56151000
47.32927000 3.56151000
47.34975000 3.56151000
47.37023000 3.56151000
47.39071000 2.66426600
47.41119000 2.66426600
47.43167000 3.56151000
47.45215000 3.56151000
47.47263000 3.56151000
47.49311000 3.56151000
47.51359000 2.66426600
47.53407000 2.66426600
47.55455000 2.66426600
47.57503000 2.66426600
47.59551000 2.66426600
47.61599000 3.56151000
47.63647000 3.56151000
47.65695000 2.66426600
47.67743000 3.56151000
47.69791000 2.66426600
47.71839000 2.66426600
47.73887000 2.66426600
47.75935000 3.56151000
47.77983000 3.56151000
47.80031000 2.66426600
47.82079000 3.56151000
47.84127000 3.56151000
47.86175000 3.56151000
47.88223000 -0.03357036
47.90271000 2.66426600
47.92319000 1.76397000
47.94367000 2.66426600
47.96415000 3.56151000
47.98463000 2.66426600
48.00511000 3.56151000
48.02559000 2.66426600
48.04607000 2.66426600
48.06655000 1.76397000
48.08703000 2.66426600
48.10751000 2.66426600
48.12799000 3.56151000
48.14847000 3.56151000
48.16895000 2.66426600
48.18943000 3.56151000
48.20991000 2.66426600
48.23039000 2.66426600
48.25087000 1.76397000
48.27135000 2.66426600
48.29183000 3.56151000
48.31231000 3.56151000
48.33279000 3.56151000
48.35328000 2.66426600
48.37375000 3.56151000
48.39423000 3.56151000
48.41471000 2.66426600
48.43519000 2.66426600
48.45567000 2.66426600
48.47615000 3.56151000
48.49663000 2.66426600
48.51711000 3.56151000
48.53759000 3.56151000
48.55807000 2.66426600
48.57855000 2.66426600
48.59903000 2.66426600
48.61951000 2.66426600
48.63999000 2.66426600
48.66047000 3.56151000
48.68095000 2.66426600
48.70143000 2.66426600
48.72191000 3.56151000
48.74239000 2.66426600
48.76287000 2.66426600
48.78335000 3.56151000
48.80383000 3.56151000
48.82431000 2.66426600
48.84479000 3.56151000
48.86527000 2.66426600
48.88575000 2.66426600
48.90623000 2.66426600
48.92671000 2.66426600
48.94719000 2.66426600
48.96767000 2.66426600
48.98815000 3.56151000
49.00863000 2.66426600
49.02911000 3.56151000
49.04959000 2.66426600
49.07007000 2.66426600
49.09055000 2.66426600
49.11103000 2.66426600
49.13151000 3.56151000
49.15199000 3.56151000
49.17247000 3.56151000
49.19295000 3.56151000
49.21343000 3.56151000
49.23391000 2.66426600
49.25439000 2.66426600
49.27487000 2.66426600
49.29535000 3.56151000
49.31583000 3.56151000
49.33631000 3.56151000
49.35679000 3.56151000
49.37727000 3.56151000
49.39775000 40.42177000
49.41823000 36.82363000
49.43871000 35.02609000
49.45919000 32.32826000
49.47967000 30.53072000
49.50015000 28.73318000
49.52063000 26.03534000
49.54111000 25.13810000
49.56159000 22.44026000
49.58207000 21.53996000
49.60255000 18.84213000
49.62303000 17.94488000
49.64351000 17.04459000
49.66399000 15.24705000
49.68447000 15.24705000
49.70495000 14.34675000
49.72543000 13.44951000
49.74591000 12.54921000
49.76639000 10.75167000
49.78687000 9.85137500
49.80735000 9.85137500
49.82783000 9.85137500
49.84831000 8.95413000
49.86879000 8.95413000
49.88927000 8.05383400
49.90975000 7.15659000
49.93023000 6.25629500
49.95071000 7.15659000
49.97119000 6.25629500
49.99167000 6.25629500
50.01215000 7.15659000
50.03263000 6.25629500
50.05311000 6.25629500
50.07359000 5.35905000
