" File: Documents and Settings\ramantut\Desktop\
" SCOPE->  Wave:551.14nm  Pix:1050  Val:160.407  Time:60000ms  Avg:1  Sm:1  Sg:0  Tc:off  Xt:3  Ch:1 
 499.00  8.3026E+001
 499.25  1.2253E+002
 499.50  8.3911E+001
 499.75  9.5935E+001
 500.00  1.4054E+002
 500.25  1.6359E+002
 500.50  1.3340E+002
 500.75  1.4058E+002
 501.00  1.9620E+002
 501.25  1.3509E+002
 501.50  1.0562E+002
 501.75  1.2294E+002
 502.00  1.2775E+002
 502.25  1.3083E+002
 502.50  1.3763E+002
 502.75  1.2590E+002
 503.00  1.1090E+002
 503.25  1.4800E+002
 503.50  1.2253E+002
 503.75  1.3239E+002
 504.00  1.5336E+002
 504.25  1.2759E+002
 504.50  1.4756E+002
 504.75  1.2483E+002
 505.00  1.5222E+002
 505.25  1.2114E+002
 505.50  1.2081E+002
 505.75  1.3144E+002
 506.00  1.1494E+002
 506.25  1.3473E+002
 506.50  1.5841E+002
 506.75  1.3826E+002
 507.00  1.9111E+002
 507.25  2.0230E+002
 507.50  1.7727E+002
 507.75  1.3575E+002
 508.00  1.3809E+002
 508.25  1.6782E+002
 508.50  1.3454E+002
 508.75  1.3868E+002
 509.00  9.9293E+001
 509.25  1.4777E+002
 509.50  1.3543E+002
 509.75  1.4783E+002
 510.00  1.5776E+002
 510.25  1.8128E+002
 510.50  2.2474E+002
 510.75  1.6128E+002
 511.00  1.5189E+002
 511.25  1.5290E+002
 511.50  1.3516E+002
 511.75  1.3744E+002
 512.00  1.5137E+002
 512.25  1.6166E+002
 512.50  1.3745E+002
 512.75  5.6376E+001
 513.00  1.6557E+002
 513.25  1.3791E+002
 513.50  1.0208E+002
 513.75  1.5379E+002
 514.00  1.5709E+002
 514.25  1.1873E+002
 514.50  1.4133E+002
 514.75  1.6126E+002
 515.00  8.9052E+001
 515.25  1.3823E+002
 515.50  1.6653E+002
 515.75  1.5847E+002
 516.00  1.5125E+002
 516.25  1.3403E+002
 516.50  1.3255E+002
 516.75  1.3110E+002
 517.00  1.4482E+002
 517.25  1.9324E+002
 517.50  3.2880E+002
 517.75  5.2669E+002
 518.00  2.5528E+002
 518.25  1.8417E+002
 518.50  2.1706E+002
 518.75  1.8459E+002
 519.00  2.0545E+002
 519.25  2.0224E+002
 519.50  2.3126E+002
 519.75  1.9943E+002
 520.00  2.1195E+002
 520.25  2.0634E+002
 520.50  2.1412E+002
 520.75  2.4143E+002
 521.00  1.9828E+002
 521.25  2.4591E+002
 521.50  2.6398E+002
 521.75  2.8714E+002
 522.00  2.5486E+002
 522.25  2.7267E+002
 522.50  3.0061E+002
 522.75  3.1124E+002
 523.00  2.9993E+002
 523.25  2.7405E+002
 523.50  3.1858E+002
 523.75  3.3861E+002
 524.00  2.9521E+002
 524.25  3.5398E+002
 524.50  3.3926E+002
 524.75  3.5680E+002
 525.00  3.0485E+002
 525.25  3.3570E+002
 525.50  3.4220E+002
 525.75  3.7676E+002
 526.00  3.6752E+002
 526.25  3.7492E+002
 526.50  3.7317E+002
 526.75  4.1384E+002
 527.00  5.3251E+002
 527.25  4.9992E+002
 527.50  5.0856E+002
 527.75  5.6537E+002
 528.00  7.0624E+002
 528.25  7.9728E+002
 528.50  8.4257E+002
 528.75  9.5605E+002
 529.00  1.0427E+003
 529.25  1.2738E+003
 529.50  1.5255E+003
 529.75  1.9044E+003
 530.00  2.6094E+003
 530.25  3.5531E+003
 530.50  4.1469E+003
 530.75  6.7968E+003
 531.00  8.3366E+003
 531.25  1.3009E+004
 531.50  1.4937E+004
 531.75  1.5640E+004
 532.00  1.4601E+004
 532.25  1.5849E+004
 532.50  1.5865E+004
 532.75  1.3703E+004
 533.00  9.0020E+003
 533.25  5.8533E+003
 533.50  3.9802E+003
 533.75  2.8791E+003
 534.00  2.2510E+003
 534.25  1.8387E+003
 534.50  1.4158E+003
 534.75  1.2177E+003
 535.00  1.0436E+003
 535.25  8.4626E+002
 535.50  8.7460E+002
 535.75  7.3031E+002
 536.00  6.9169E+002
 536.25  5.2245E+002
 536.50  4.2687E+002
 536.75  4.6960E+002
 537.00  4.4924E+002
 537.25  4.8637E+002
 537.50  4.1128E+002
 537.75  3.6570E+002
 538.00  4.1318E+002
 538.25  4.0294E+002
 538.50  4.6346E+002
 538.75  4.1451E+002
 539.00  4.2270E+002
 539.25  4.0651E+002
 539.50  4.1997E+002
 539.75  4.0069E+002
 540.00  3.8097E+002
 540.25  4.1860E+002
 540.50  4.3361E+002
 540.75  4.1382E+002
 541.00  3.9825E+002
 541.25  4.2456E+002
 541.50  3.7351E+002
 541.75  3.2295E+002
 542.00  3.5043E+002
 542.25  3.3744E+002
 542.50  3.3810E+002
 542.75  3.0990E+002
 543.00  3.7253E+002
 543.25  2.9892E+002
 543.50  4.0837E+002
 543.75  3.1150E+002
 544.00  3.2209E+002
 544.25  2.7534E+002
 544.50  2.8530E+002
 544.75  2.8945E+002
 545.00  2.8362E+002
 545.25  2.8926E+002
 545.50  2.5254E+002
 545.75  2.5130E+002
 546.00  2.8926E+002
 546.25  2.8985E+002
 546.50  3.4542E+002
 546.75  3.8617E+002
 547.00  1.5659E+003
 547.25  2.5844E+003
 547.50  8.4813E+002
 547.75  4.0844E+002
 548.00  3.2454E+002
 548.25  2.4227E+002
 548.50  2.3166E+002
 548.75  1.8515E+002
 549.00  1.8239E+002
 549.25  2.5986E+002
 549.50  2.0990E+002
 549.75  1.8199E+002
 550.00  1.6044E+002
 550.25  1.9781E+002
 550.50  1.8416E+002
 550.75  1.7798E+002
 551.00  1.6366E+002
 551.25  1.6335E+002
 551.50  1.8509E+002
 551.75  1.8543E+002
 552.00  1.9768E+002
 552.25  1.4570E+002
 552.50  1.8332E+002
 552.75  1.7064E+002
 553.00  1.9580E+002
 553.25  1.8324E+002
 553.50  1.7546E+002
 553.75  1.6797E+002
 554.00  1.8676E+002
 554.25  1.8515E+002
 554.50  1.3257E+002
 554.75  1.4000E+002
 555.00  1.7356E+002
 555.25  1.7478E+002
 555.50  2.1455E+002
 555.75  1.7215E+002
 556.00  2.0328E+002
 556.25  1.5091E+002
 556.50  1.5923E+002
 556.75  1.5625E+002
 557.00  1.3405E+002
 557.25  1.8534E+002
 557.50  1.7254E+002
 557.75  1.8591E+002
 558.00  1.7740E+002
 558.25  1.8734E+002
 558.50  1.4629E+002
 558.75  1.4267E+002
 559.00  1.5591E+002
 559.25  1.3098E+002
 559.50  1.4327E+002
 559.75  2.0668E+002
 560.00  2.4706E+002
 560.25  2.4286E+002
 560.50  2.5649E+002
 560.75  2.7214E+002
 561.00  2.3002E+002
 561.25  2.2933E+002
 561.50  2.6163E+002
 561.75  2.1736E+002
 562.00  1.5900E+002
 562.25  1.7025E+002
 562.50  1.6767E+002
 562.75  1.6598E+002
 563.00  1.1685E+002
 563.25  1.5055E+002
 563.50  1.4020E+002
 563.75  1.4386E+002
 564.00  1.5142E+002
 564.25  1.3665E+002
 564.50  1.5272E+002
 564.75  1.3963E+002
 565.00  1.1588E+002
 565.25  1.1130E+002
 565.50  1.1617E+002
 565.75  1.1665E+002
 566.00  1.4001E+002
 566.25  1.4012E+002
 566.50  1.8095E+002
 566.75  1.4434E+002
 567.00  1.7104E+002
 567.25  1.4984E+002
 567.50  1.3339E+002
 567.75  1.4305E+002
 568.00  1.1493E+002
 568.25  1.2513E+002
 568.50  1.2611E+002
 568.75  1.4121E+002
 569.00  1.3314E+002
 569.25  1.7566E+002
 569.50  1.5723E+002
 569.75  1.8984E+002
 570.00  1.4738E+002
 570.25  1.1805E+002
 570.50  1.2078E+002
 570.75  1.0601E+002
 571.00  1.2350E+002
 571.25  1.2398E+002
 571.50  1.6083E+002
 571.75  1.3517E+002
 572.00  1.3414E+002
 572.25  1.4298E+002
 572.50  1.1768E+002
 572.75  9.6505E+001
 573.00  1.8395E+002
 573.25  1.5358E+002
 573.50  1.4651E+002
 573.75  1.6349E+002
 574.00  1.8495E+002
 574.25  1.4697E+002
 574.50  1.5967E+002
 574.75  1.5078E+002
 575.00  1.4790E+002
 575.25  1.5183E+002
 575.50  1.5134E+002
 575.75  9.2340E+001
 576.00  9.2040E+001
 576.25  1.4428E+002
 576.50  1.4395E+002
 576.75  1.6175E+002
 577.00  1.3034E+002
 577.25  1.6316E+002
 577.50  1.3224E+002
 577.75  1.1828E+002
 578.00  1.4087E+002
 578.25  1.2901E+002
 578.50  7.3053E+001
 578.75  1.1866E+002
 579.00  1.0447E+002
 579.25  1.3237E+002
 579.50  1.1313E+002
 579.75  1.4513E+002
 580.00  -4.2306E+003
 580.25  -3.3558E+001
 580.50  9.8107E+001
 580.75  1.1599E+002
 581.00  1.7754E+002
 581.25  1.2028E+002
 581.50  1.1681E+002
 581.75  1.3546E+002
 582.00  1.4150E+002
 582.25  1.6602E+002
 582.50  1.5875E+002
 582.75  1.3106E+002
 583.00  1.3948E+002
 583.25  1.4602E+002
 583.50  1.7397E+002
 583.75  1.5412E+002
 584.00  1.3912E+002
 584.25  1.2870E+002
 584.50  1.4435E+002
 584.75  1.2024E+002
 585.00  1.1278E+002
 585.25  1.9599E+002
 585.50  1.5615E+002
 585.75  1.3858E+002
 586.00  1.4237E+002
 586.25  1.2684E+002
 586.50  1.2620E+002
 586.75  1.3609E+002
 587.00  1.3571E+002
 587.25  1.2853E+002
 587.50  1.2644E+002
 587.75  1.7898E+002
 588.00  1.5066E+002
 588.25  1.3632E+002
 588.50  1.3250E+002
 588.75  1.4467E+002
 589.00  1.4787E+002
 589.25  1.3315E+002
 589.50  1.4065E+002
 589.75  1.3894E+002
 590.00  1.4797E+002
 590.25  1.5601E+002
 590.50  1.2007E+002
 590.75  1.4921E+002
 591.00  1.4244E+002
 591.25  1.5720E+002
 591.50  1.3523E+002
 591.75  1.2904E+002
 592.00  1.6174E+002
 592.25  1.2203E+002
 592.50  1.2940E+002
 592.75  1.1213E+002
 593.00  1.4997E+002
 593.25  1.2452E+002
 593.50  1.3173E+002
 593.75  1.4390E+002
 594.00  1.2086E+002
 594.25  1.2450E+002
 594.50  1.4838E+002
 594.75  1.8561E+002
 595.00  1.1062E+002
 595.25  1.3670E+002
 595.50  1.2853E+002
 595.75  1.1152E+002
 596.00  1.3037E+002
 596.25  1.2272E+002
 596.50  1.4305E+002
 596.75  1.4700E+002
 597.00  1.4577E+002
 597.25  1.3042E+002
 597.50  1.5205E+002
 597.75  2.4375E+002
 598.00  1.6558E+002
 598.25  1.4173E+002
 598.50  1.3012E+002
 598.75  1.4598E+002
 599.00  1.4294E+002
 599.25  1.1502E+002
 599.50  1.3705E+002
 599.75  1.3184E+002
 600.00  1.3177E+002
 600.25  1.4618E+002
 600.50  8.6146E+001
 600.75  9.9759E+001
